onset	duration	trial_type	trial_type_err	response_time	accuracy	target_dir	target_pos	correct_resp	resp
25.821	0.2	SpatialCue	SpatialCue	n/a	n/a	n/a	Down	n/a	n/a
26.304	2	Congruent	Congruent	643	1	Left	Down	y	y
41.313	0.2	CenterCue	CenterCue	n/a	n/a	n/a	n/a	n/a	n/a
42.563	2	Incongruent	Incongruent	870	1	Right	Up	g	g
49.076	0.2	NoCue	NoCue	n/a	n/a	n/a	n/a	n/a	n/a
55.823	2	Incongruent	Incongruent	1011	1	Right	Up	g	g
63.836	0.2	SpatialCue	SpatialCue	n/a	n/a	n/a	Down	n/a	n/a
66.318	2	Congruent	Congruent	674	1	Right	Down	g	g
69.833	0.2	CenterCue	CenterCue	n/a	n/a	n/a	n/a	n/a	n/a
70.316	2	Congruent	Congruent	660	1	Left	Up	y	y
74.33	0.2	SpatialCue	SpatialCue	n/a	n/a	n/a	Down	n/a	n/a
75.063	2	Incongruent	Incongruent	839	1	Left	Down	y	y
85.075	0.2	SpatialCue	SpatialCue	n/a	n/a	n/a	Up	n/a	n/a
86.808	2	Incongruent	Incongruent	661	1	Right	Up	g	g
90.073	0.2	CenterCue	CenterCue	n/a	n/a	n/a	n/a	n/a	n/a
91.055	2	Congruent	Congruent	818	1	Left	Up	y	y
96.069	0.2	CenterCue	CenterCue	n/a	n/a	n/a	n/a	n/a	n/a
101.05	2	Incongruent	Incongruent	912	1	Right	Down	g	g
104.81	0.2	SpatialCue	SpatialCue	n/a	n/a	n/a	Up	n/a	n/a
116.81	2	Incongruent	Incongruent	757	1	Right	Up	g	g
122.32	0.2	SpatialCue	SpatialCue	n/a	n/a	n/a	Down	n/a	n/a
122.81	2	Congruent	Congruent	768	1	Right	Down	g	g
125.82	0.2	NoCue	NoCue	n/a	n/a	n/a	n/a	n/a	n/a
129.3	2	Incongruent	Incongruent	805	1	Left	Up	y	y
133.82	0.2	NoCue	NoCue	n/a	n/a	n/a	n/a	n/a	n/a
145.81	2	Congruent	Congruent	622	1	Right	Up	g	g
150.83	0.2	CenterCue	CenterCue	n/a	n/a	n/a	n/a	n/a	n/a
151.31	2	Incongruent	Incongruent	995	1	Left	Down	y	y
155.82	0.2	CenterCue	CenterCue	n/a	n/a	n/a	n/a	n/a	n/a
160.8	2	Congruent	Congruent	567	1	Right	Down	g	g
164.82	0.2	CenterCue	CenterCue	n/a	n/a	n/a	n/a	n/a	n/a
166.55	2	Congruent	Congruent	536	1	Right	Down	g	g
169.57	0.2	SpatialCue	SpatialCue	n/a	n/a	n/a	Up	n/a	n/a
170.05	2	Congruent	Congruent	591	1	Left	Up	y	y
173.81	0.2	NoCue	NoCue	n/a	n/a	n/a	n/a	n/a	n/a
177.3	2	Congruent	Congruent	654	1	Left	Down	y	y
185.31	0.2	NoCue	NoCue	n/a	n/a	n/a	n/a	n/a	n/a
186.29	2	Congruent	Congruent	693	1	Left	Up	y	y
192.81	0.2	SpatialCue	SpatialCue	n/a	n/a	n/a	Down	n/a	n/a
194.04	2	Incongruent	Incongruent	674	1	Left	Down	y	y
197.55	0.2	NoCue	NoCue	n/a	n/a	n/a	n/a	n/a	n/a
198.03	2	Congruent	Congruent	562	1	Right	Down	g	g
213.04	0.2	NoCue	NoCue	n/a	n/a	n/a	n/a	n/a	n/a
215.54	2	Incongruent	Incongruent	764	1	Left	Up	y	y
218.81	0.2	NoCue	NoCue	n/a	n/a	n/a	n/a	n/a	n/a
219.54	2	Incongruent	Incongruent	910	1	Right	Down	g	g
225.06	0.2	SpatialCue	SpatialCue	n/a	n/a	n/a	Up	n/a	n/a
231.79	2	Incongruent	Incongruent	615	1	Left	Up	y	y
241.8	0.2	NoCue	NoCue	n/a	n/a	n/a	n/a	n/a	n/a
245.29	2	Incongruent	Incongruent	709	1	Right	Down	g	g
255.31	0.2	CenterCue	CenterCue	n/a	n/a	n/a	n/a	n/a	n/a
256.56	2	Congruent	Congruent	595	1	Left	Down	y	y
264.57	0.2	NoCue	NoCue	n/a	n/a	n/a	n/a	n/a	n/a
267.05	2	Incongruent	Incongruent	690	1	Left	Down	y	y
270.82	0.2	CenterCue	CenterCue	n/a	n/a	n/a	n/a	n/a	n/a
271.8	2	Incongruent	Incongruent	659	1	Right	Up	g	g
274.81	0.2	CenterCue	CenterCue	n/a	n/a	n/a	n/a	n/a	n/a
275.3	2	Incongruent	Incongruent	717	1	Left	Up	y	y
279.31	0.2	SpatialCue	SpatialCue	n/a	n/a	n/a	Up	n/a	n/a
286.04	2	Congruent	Congruent	584	1	Right	Up	g	g
289.56	0.2	SpatialCue	SpatialCue	n/a	n/a	n/a	Down	n/a	n/a
290.29	2	Incongruent	Incongruent	521	1	Right	Down	g	g
295.3	0.2	CenterCue	CenterCue	n/a	n/a	n/a	n/a	n/a	n/a
307.3	2	Incongruent	Incongruent	690	1	Left	Down	y	y
313.81	0.2	NoCue	NoCue	n/a	n/a	n/a	n/a	n/a	n/a
315.54	2	Congruent	Congruent	564	1	Right	Up	g	g
330.55	0.2	CenterCue	CenterCue	n/a	n/a	n/a	n/a	n/a	n/a
335.55	2	Congruent	Congruent	539	1	Right	Up	g	g
338.81	0.2	NoCue	NoCue	n/a	n/a	n/a	n/a	n/a	n/a
339.3	2	Congruent	Congruent	555	1	Left	Down	y	y
344.81	0.2	SpatialCue	SpatialCue	n/a	n/a	n/a	Up	n/a	n/a
345.3	2	Congruent	Congruent	579	1	Left	Up	y	y
