onset	duration	trial_type	trial_type_err	response_time	accuracy	target_dir	target_pos	correct_resp	resp
25.817	0.2	NoCue	NoCue	n/a	n/a	n/a	n/a	n/a	n/a
26.3	2	Incongruent	Incongruent	901	1	Left	Down	y	y
41.309	0.2	SpatialCue	SpatialCue	n/a	n/a	n/a	Up	n/a	n/a
42.558	2	Congruent	Congruent	863	1	Left	Up	y	y
49.072	0.2	CenterCue	CenterCue	n/a	n/a	n/a	n/a	n/a	n/a
55.818	2	Incongruent	Incongruent	1099	1	Right	Down	g	g
63.831	0.2	NoCue	NoCue	n/a	n/a	n/a	n/a	n/a	n/a
66.313	2	Incongruent	Incongruent	881	1	Right	Down	g	g
69.828	0.2	SpatialCue	SpatialCue	n/a	n/a	n/a	Up	n/a	n/a
70.311	2	Incongruent	Incongruent	883	1	Right	Up	g	g
74.325	0.2	NoCue	NoCue	n/a	n/a	n/a	n/a	n/a	n/a
75.058	2	Congruent	Congruent	841	1	Left	Up	y	y
85.07	0.2	NoCue	NoCue	n/a	n/a	n/a	n/a	n/a	n/a
86.803	2	Congruent	Congruent	986	1	Right	Up	g	g
90.068	0.2	SpatialCue	SpatialCue	n/a	n/a	n/a	Down	n/a	n/a
91.05	2	Incongruent	Incongruent	710	1	Left	Down	y	y
96.065	0.2	SpatialCue	SpatialCue	n/a	n/a	n/a	Up	n/a	n/a
101.05	2	Congruent	Congruent	1277	1	Left	Up	y	y
104.81	0.2	NoCue	NoCue	n/a	n/a	n/a	n/a	n/a	n/a
116.8	2	Congruent	Congruent	731	1	Left	Up	y	y
122.32	0.2	NoCue	CueErr	n/a	n/a	n/a	n/a	n/a	n/a
122.8	2	Incongruent	TargetErr	0	0	Right	Up	g	n/a
125.83	0.2	CenterCue	CenterCue	n/a	n/a	n/a	n/a	n/a	n/a
129.3	2	Incongruent	Incongruent	816	1	Left	Up	y	y
133.81	0.2	CenterCue	CenterCue	n/a	n/a	n/a	n/a	n/a	n/a
145.81	2	Congruent	Congruent	778	1	Left	Down	y	y
150.82	0.2	SpatialCue	SpatialCue	n/a	n/a	n/a	Up	n/a	n/a
151.3	2	Congruent	Congruent	829	1	Right	Up	g	g
155.82	0.2	SpatialCue	SpatialCue	n/a	n/a	n/a	Down	n/a	n/a
160.8	2	Incongruent	Incongruent	1650	1	Right	Down	g	g
164.81	0.2	SpatialCue	SpatialCue	n/a	n/a	n/a	Up	n/a	n/a
166.55	2	Incongruent	Incongruent	739	1	Right	Up	g	g
169.56	0.2	NoCue	NoCue	n/a	n/a	n/a	n/a	n/a	n/a
170.04	2	Incongruent	Incongruent	1130	1	Left	Up	y	y
173.81	0.2	CenterCue	CenterCue	n/a	n/a	n/a	n/a	n/a	n/a
177.29	2	Congruent	Congruent	788	1	Left	Down	y	y
185.3	0.2	CenterCue	CenterCue	n/a	n/a	n/a	n/a	n/a	n/a
186.29	2	Congruent	Congruent	764	1	Right	Down	g	g
192.8	0.2	NoCue	NoCue	n/a	n/a	n/a	n/a	n/a	n/a
194.03	2	Congruent	Congruent	889	1	Right	Down	g	g
197.55	0.2	CenterCue	CenterCue	n/a	n/a	n/a	n/a	n/a	n/a
198.03	2	Congruent	Congruent	658	1	Right	Up	g	g
213.04	0.2	CenterCue	CenterCue	n/a	n/a	n/a	n/a	n/a	n/a
215.54	2	Incongruent	Incongruent	988	1	Left	Up	y	y
218.8	0.2	CenterCue	CenterCue	n/a	n/a	n/a	n/a	n/a	n/a
219.54	2	Incongruent	Incongruent	872	1	Left	Down	y	y
225.05	0.2	NoCue	NoCue	n/a	n/a	n/a	n/a	n/a	n/a
231.8	2	Congruent	Congruent	1075	1	Right	Down	g	g
241.81	0.2	CenterCue	CenterCue	n/a	n/a	n/a	n/a	n/a	n/a
245.31	2	Incongruent	Incongruent	1117	1	Right	Down	g	g
255.32	0.2	SpatialCue	SpatialCue	n/a	n/a	n/a	Up	n/a	n/a
256.57	2	Incongruent	Incongruent	840	1	Left	Up	y	y
264.58	0.2	CenterCue	CenterCue	n/a	n/a	n/a	n/a	n/a	n/a
267.06	2	Incongruent	Incongruent	890	1	Right	Up	g	g
270.83	0.2	SpatialCue	SpatialCue	n/a	n/a	n/a	Down	n/a	n/a
271.81	2	Congruent	Congruent	745	1	Right	Down	g	g
274.82	0.2	SpatialCue	SpatialCue	n/a	n/a	n/a	Down	n/a	n/a
275.31	2	Congruent	Congruent	849	1	Left	Down	y	y
279.32	0.2	NoCue	NoCue	n/a	n/a	n/a	n/a	n/a	n/a
286.07	2	Incongruent	Incongruent	1199	1	Right	Up	g	g
289.58	0.2	NoCue	NoCue	n/a	n/a	n/a	n/a	n/a	n/a
290.32	2	Congruent	Congruent	921	1	Left	Down	y	y
295.33	0.2	SpatialCue	SpatialCue	n/a	n/a	n/a	Down	n/a	n/a
307.32	2	Congruent	Congruent	658	1	Right	Down	g	g
313.84	0.2	CenterCue	CenterCue	n/a	n/a	n/a	n/a	n/a	n/a
315.57	2	Congruent	Congruent	621	1	Left	Up	y	y
330.58	0.2	SpatialCue	SpatialCue	n/a	n/a	n/a	Down	n/a	n/a
335.58	2	Incongruent	Incongruent	1338	1	Left	Down	y	y
338.84	0.2	CenterCue	CenterCue	n/a	n/a	n/a	n/a	n/a	n/a
339.32	2	Congruent	Congruent	708	1	Right	Up	g	g
344.84	0.2	NoCue	NoCue	n/a	n/a	n/a	n/a	n/a	n/a
345.32	2	Incongruent	Incongruent	574	1	Left	Down	y	y
