onset	duration	trial_type	trial_type_err	response_time	accuracy	target_dir	target_pos	correct_resp	resp
25.807	0.2	NoCue	NoCue	n/a	n/a	n/a	n/a	n/a	n/a
26.29	2	Incongruent	Incongruent	1245	1	Left	Down	y	y
41.299	0.2	SpatialCue	SpatialCue	n/a	n/a	n/a	Up	n/a	n/a
42.549	2	Congruent	Congruent	938	1	Left	Up	y	y
49.062	0.2	CenterCue	CenterCue	n/a	n/a	n/a	n/a	n/a	n/a
55.809	2	Incongruent	Incongruent	1358	1	Right	Down	g	g
63.821	0.2	NoCue	NoCue	n/a	n/a	n/a	n/a	n/a	n/a
66.304	2	Incongruent	Incongruent	1159	1	Right	Down	g	g
69.818	0.2	SpatialCue	SpatialCue	n/a	n/a	n/a	Up	n/a	n/a
70.301	2	Incongruent	Incongruent	1098	1	Right	Up	g	g
74.316	0.2	NoCue	NoCue	n/a	n/a	n/a	n/a	n/a	n/a
75.049	2	Congruent	Congruent	918	1	Left	Up	y	y
85.061	0.2	NoCue	NoCue	n/a	n/a	n/a	n/a	n/a	n/a
86.794	2	Congruent	Congruent	1173	1	Right	Up	g	g
90.058	0.2	SpatialCue	SpatialCue	n/a	n/a	n/a	Down	n/a	n/a
91.041	2	Incongruent	Incongruent	886	1	Left	Down	y	y
96.055	0.2	SpatialCue	SpatialCue	n/a	n/a	n/a	Up	n/a	n/a
101.04	2	Congruent	Congruent	946	1	Left	Up	y	y
104.8	0.2	NoCue	NoCue	n/a	n/a	n/a	n/a	n/a	n/a
116.8	2	Congruent	Congruent	1155	1	Left	Up	y	y
122.31	0.2	NoCue	NoCue	n/a	n/a	n/a	n/a	n/a	n/a
122.79	2	Incongruent	Incongruent	1174	1	Right	Up	g	g
125.81	0.2	CenterCue	CenterCue	n/a	n/a	n/a	n/a	n/a	n/a
129.29	2	Incongruent	Incongruent	1141	1	Left	Up	y	y
133.8	0.2	CenterCue	CenterCue	n/a	n/a	n/a	n/a	n/a	n/a
145.8	2	Congruent	Congruent	1089	1	Left	Down	y	y
150.81	0.2	SpatialCue	SpatialCue	n/a	n/a	n/a	Up	n/a	n/a
151.29	2	Congruent	Congruent	792	1	Right	Up	g	g
155.81	0.2	SpatialCue	SpatialCue	n/a	n/a	n/a	Down	n/a	n/a
160.79	2	Incongruent	Incongruent	993	1	Right	Down	g	g
164.8	0.2	SpatialCue	SpatialCue	n/a	n/a	n/a	Up	n/a	n/a
166.54	2	Incongruent	Incongruent	1357	1	Right	Up	g	g
169.55	0.2	NoCue	NoCue	n/a	n/a	n/a	n/a	n/a	n/a
170.03	2	Incongruent	Incongruent	1035	1	Left	Up	y	y
173.8	0.2	CenterCue	CenterCue	n/a	n/a	n/a	n/a	n/a	n/a
177.28	2	Congruent	Congruent	1181	1	Left	Down	y	y
185.29	0.2	CenterCue	CenterCue	n/a	n/a	n/a	n/a	n/a	n/a
186.28	2	Congruent	Congruent	1161	1	Right	Down	g	g
192.79	0.2	NoCue	NoCue	n/a	n/a	n/a	n/a	n/a	n/a
194.02	2	Congruent	Congruent	1030	1	Right	Down	g	g
197.54	0.2	CenterCue	CenterCue	n/a	n/a	n/a	n/a	n/a	n/a
198.02	2	Congruent	Congruent	1440	1	Right	Up	g	g
213.03	0.2	CenterCue	CenterCue	n/a	n/a	n/a	n/a	n/a	n/a
215.53	2	Incongruent	Incongruent	1108	1	Left	Up	y	y
218.79	0.2	CenterCue	CenterCue	n/a	n/a	n/a	n/a	n/a	n/a
219.53	2	Incongruent	Incongruent	1078	1	Left	Down	y	y
225.04	0.2	NoCue	NoCue	n/a	n/a	n/a	n/a	n/a	n/a
231.79	2	Congruent	Congruent	1098	1	Right	Down	g	g
241.8	0.2	CenterCue	CenterCue	n/a	n/a	n/a	n/a	n/a	n/a
245.3	2	Incongruent	Incongruent	1284	1	Right	Down	g	g
255.31	0.2	SpatialCue	SpatialCue	n/a	n/a	n/a	Up	n/a	n/a
256.54	2	Incongruent	Incongruent	1158	1	Left	Up	y	y
264.55	0.2	CenterCue	CenterCue	n/a	n/a	n/a	n/a	n/a	n/a
267.05	2	Incongruent	Incongruent	1199	1	Right	Up	g	g
270.82	0.2	SpatialCue	SpatialCue	n/a	n/a	n/a	Down	n/a	n/a
271.8	2	Congruent	Congruent	1068	1	Right	Down	g	g
274.82	0.2	SpatialCue	SpatialCue	n/a	n/a	n/a	Down	n/a	n/a
275.3	2	Congruent	Congruent	938	1	Left	Down	y	y
279.31	0.2	NoCue	NoCue	n/a	n/a	n/a	n/a	n/a	n/a
286.04	2	Incongruent	Incongruent	1592	1	Right	Up	g	g
289.56	0.2	NoCue	NoCue	n/a	n/a	n/a	n/a	n/a	n/a
290.29	2	Congruent	Congruent	1065	1	Left	Down	y	y
295.31	0.2	SpatialCue	SpatialCue	n/a	n/a	n/a	Down	n/a	n/a
307.3	2	Congruent	Congruent	945	1	Right	Down	g	g
313.81	0.2	CenterCue	CenterCue	n/a	n/a	n/a	n/a	n/a	n/a
315.55	2	Congruent	Congruent	1123	1	Left	Up	y	y
330.55	0.2	SpatialCue	SpatialCue	n/a	n/a	n/a	Down	n/a	n/a
335.55	2	Incongruent	Incongruent	924	1	Left	Down	y	y
338.82	0.2	CenterCue	CenterCue	n/a	n/a	n/a	n/a	n/a	n/a
339.3	2	Congruent	Congruent	1704	1	Right	Up	g	g
344.81	0.2	NoCue	NoCue	n/a	n/a	n/a	n/a	n/a	n/a
345.3	2	Incongruent	Incongruent	1099	1	Left	Down	y	y
