onset	duration	trial_type	trial_type_err	response_time	accuracy	target_dir	target_pos	correct_resp	resp
25.816	0.2	NoCue	NoCue	n/a	n/a	n/a	n/a	n/a	n/a
26.299	2	Congruent	Congruent	669	1	Left	Up	y	y
41.308	0.2	SpatialCue	SpatialCue	n/a	n/a	n/a	Down	n/a	n/a
42.557	2	Incongruent	Incongruent	739	1	Right	Down	g	g
49.071	0.2	CenterCue	CenterCue	n/a	n/a	n/a	n/a	n/a	n/a
55.817	2	Congruent	Congruent	762	1	Left	Down	y	y
63.83	0.2	NoCue	NoCue	n/a	n/a	n/a	n/a	n/a	n/a
66.312	2	Congruent	Congruent	682	1	Right	Up	g	g
69.827	0.2	SpatialCue	SpatialCue	n/a	n/a	n/a	Up	n/a	n/a
70.31	2	Congruent	Congruent	576	1	Left	Up	y	y
74.325	0.2	NoCue	NoCue	n/a	n/a	n/a	n/a	n/a	n/a
75.058	2	Incongruent	Incongruent	827	1	Left	Down	y	y
85.069	0.2	NoCue	NoCue	n/a	n/a	n/a	n/a	n/a	n/a
86.818	2	Incongruent	Incongruent	861	1	Right	Up	g	g
90.083	0.2	SpatialCue	SpatialCue	n/a	n/a	n/a	Down	n/a	n/a
91.066	2	Congruent	Congruent	686	1	Right	Down	g	g
96.08	0.2	SpatialCue	SpatialCue	n/a	n/a	n/a	Down	n/a	n/a
101.06	2	Incongruent	Incongruent	758	1	Left	Down	y	y
104.83	0.2	NoCue	NoCue	n/a	n/a	n/a	n/a	n/a	n/a
116.82	2	Incongruent	Incongruent	878	1	Left	Up	y	y
122.33	0.2	NoCue	NoCue	n/a	n/a	n/a	n/a	n/a	n/a
122.82	2	Congruent	Congruent	736	1	Left	Up	y	y
125.83	0.2	CenterCue	CenterCue	n/a	n/a	n/a	n/a	n/a	n/a
129.31	2	Congruent	Congruent	884	1	Right	Down	g	g
133.83	0.2	CenterCue	CenterCue	n/a	n/a	n/a	n/a	n/a	n/a
145.82	2	Incongruent	Incongruent	1135	1	Left	Up	y	y
150.84	0.2	SpatialCue	SpatialCue	n/a	n/a	n/a	Up	n/a	n/a
151.32	2	Incongruent	Incongruent	828	1	Right	Up	g	g
155.83	0.2	SpatialCue	SpatialCue	n/a	n/a	n/a	Down	n/a	n/a
160.81	2	Congruent	Congruent	925	1	Left	Down	y	y
164.83	0.2	SpatialCue	SpatialCue	n/a	n/a	n/a	Down	n/a	n/a
166.56	2	Congruent	Congruent	925	1	Left	Down	y	y
169.58	0.2	NoCue	NoCue	n/a	n/a	n/a	n/a	n/a	n/a
170.06	2	Congruent	Congruent	803	1	Right	Down	g	g
173.82	0.2	CenterCue	CenterCue	n/a	n/a	n/a	n/a	n/a	n/a
177.31	2	Incongruent	Incongruent	880	1	Right	Up	g	g
185.32	0.2	CenterCue	CenterCue	n/a	n/a	n/a	n/a	n/a	n/a
186.3	2	Incongruent	Incongruent	1133	1	Left	Down	y	y
192.81	0.2	NoCue	NoCue	n/a	n/a	n/a	n/a	n/a	n/a
194.05	2	Incongruent	Incongruent	1220	1	Right	Up	g	g
197.56	0.2	CenterCue	CenterCue	n/a	n/a	n/a	n/a	n/a	n/a
198.05	2	Incongruent	Incongruent	812	1	Right	Down	g	g
213.06	0.2	CenterCue	CenterCue	n/a	n/a	n/a	n/a	n/a	n/a
215.55	2	Congruent	Congruent	1145	1	Left	Down	y	y
218.82	0.2	CenterCue	CenterCue	n/a	n/a	n/a	n/a	n/a	n/a
219.55	2	Congruent	Congruent	856	1	Left	Up	y	y
225.06	0.2	NoCue	NoCue	n/a	n/a	n/a	n/a	n/a	n/a
231.8	2	Incongruent	Incongruent	1070	1	Right	Down	g	g
241.81	0.2	CenterCue	CenterCue	n/a	n/a	n/a	n/a	n/a	n/a
245.31	2	Congruent	Congruent	762	1	Right	Up	g	g
255.32	0.2	SpatialCue	SpatialCue	n/a	n/a	n/a	Up	n/a	n/a
256.55	2	Congruent	Congruent	870	1	Right	Up	g	g
264.56	0.2	CenterCue	CenterCue	n/a	n/a	n/a	n/a	n/a	n/a
267.05	2	Congruent	Congruent	743	1	Right	Up	g	g
270.81	0.2	SpatialCue	SpatialCue	n/a	n/a	n/a	Up	n/a	n/a
271.79	2	Incongruent	Incongruent	872	1	Left	Up	y	y
274.81	0.2	SpatialCue	SpatialCue	n/a	n/a	n/a	Down	n/a	n/a
275.29	2	Incongruent	Incongruent	621	1	Right	Down	g	g
279.31	0.2	NoCue	NoCue	n/a	n/a	n/a	n/a	n/a	n/a
286.04	2	Congruent	Congruent	1067	1	Left	Down	y	y
289.55	0.2	NoCue	NoCue	n/a	n/a	n/a	n/a	n/a	n/a
290.28	2	Incongruent	Incongruent	985	1	Left	Down	y	y
295.3	0.2	SpatialCue	SpatialCue	n/a	n/a	n/a	Up	n/a	n/a
307.29	2	Incongruent	Incongruent	839	1	Left	Up	y	y
313.8	0.2	CenterCue	CenterCue	n/a	n/a	n/a	n/a	n/a	n/a
315.54	2	Incongruent	Incongruent	732	1	Right	Down	g	g
330.55	0.2	SpatialCue	SpatialCue	n/a	n/a	n/a	Up	n/a	n/a
335.54	2	Congruent	Congruent	782	1	Right	Up	g	g
338.81	0.2	CenterCue	CenterCue	n/a	n/a	n/a	n/a	n/a	n/a
339.29	2	Incongruent	Incongruent	864	1	Left	Up	y	y
344.81	0.2	NoCue	NoCue	n/a	n/a	n/a	n/a	n/a	n/a
345.29	2	Congruent	Congruent	912	1	Right	Down	g	g
