onset	duration	trial_type	trial_type_err	response_time	accuracy	target_dir	target_pos	correct_resp	resp
25.814	0.2	NoCue	NoCue	n/a	n/a	n/a	n/a	n/a	n/a
26.297	2	Congruent	Congruent	1288	1	Left	Up	y	y
41.306	0.2	SpatialCue	SpatialCue	n/a	n/a	n/a	Down	n/a	n/a
42.556	2	Incongruent	Incongruent	929	1	Right	Down	g	g
49.069	0.2	CenterCue	CenterCue	n/a	n/a	n/a	n/a	n/a	n/a
55.816	2	Congruent	Congruent	1213	1	Left	Down	y	y
63.829	0.2	NoCue	NoCue	n/a	n/a	n/a	n/a	n/a	n/a
66.311	2	Congruent	Congruent	963	1	Right	Up	g	g
69.825	0.2	SpatialCue	SpatialCue	n/a	n/a	n/a	Up	n/a	n/a
70.309	2	Congruent	Congruent	795	1	Left	Up	y	y
74.323	0.2	NoCue	NoCue	n/a	n/a	n/a	n/a	n/a	n/a
75.056	2	Incongruent	Incongruent	1337	1	Left	Down	y	y
85.068	0.2	NoCue	NoCue	n/a	n/a	n/a	n/a	n/a	n/a
86.801	2	Incongruent	Incongruent	1650	1	Right	Up	g	g
90.065	0.2	SpatialCue	SpatialCue	n/a	n/a	n/a	Down	n/a	n/a
91.048	2	Congruent	Congruent	930	1	Right	Down	g	g
96.062	0.2	SpatialCue	SpatialCue	n/a	n/a	n/a	Down	n/a	n/a
101.04	2	Incongruent	Incongruent	1153	1	Left	Down	y	y
104.81	0.2	NoCue	NoCue	n/a	n/a	n/a	n/a	n/a	n/a
116.8	2	Incongruent	Incongruent	1353	1	Left	Up	y	y
122.32	0.2	NoCue	NoCue	n/a	n/a	n/a	n/a	n/a	n/a
122.8	2	Congruent	Congruent	1206	1	Left	Up	y	y
125.81	0.2	CenterCue	CenterCue	n/a	n/a	n/a	n/a	n/a	n/a
129.29	2	Congruent	Congruent	1334	1	Right	Down	g	g
133.81	0.2	CenterCue	CenterCue	n/a	n/a	n/a	n/a	n/a	n/a
145.8	2	Incongruent	Incongruent	1197	1	Left	Up	y	y
150.82	0.2	SpatialCue	SpatialCue	n/a	n/a	n/a	Up	n/a	n/a
151.3	2	Incongruent	Incongruent	993	1	Right	Up	g	g
155.81	0.2	SpatialCue	SpatialCue	n/a	n/a	n/a	Down	n/a	n/a
160.8	2	Congruent	Congruent	921	1	Left	Down	y	y
164.81	0.2	SpatialCue	SpatialCue	n/a	n/a	n/a	Down	n/a	n/a
166.54	2	Congruent	Congruent	896	1	Left	Down	y	y
169.56	0.2	NoCue	NoCue	n/a	n/a	n/a	n/a	n/a	n/a
170.04	2	Congruent	Congruent	1266	1	Right	Down	g	g
173.81	0.2	CenterCue	CenterCue	n/a	n/a	n/a	n/a	n/a	n/a
177.29	2	Incongruent	Incongruent	1319	1	Right	Up	g	g
185.3	0.2	CenterCue	CenterCue	n/a	n/a	n/a	n/a	n/a	n/a
186.28	2	Incongruent	Incongruent	1432	1	Left	Down	y	y
192.8	0.2	NoCue	NoCue	n/a	n/a	n/a	n/a	n/a	n/a
194.03	2	Incongruent	Incongruent	1261	1	Right	Up	g	g
197.54	0.2	CenterCue	CenterCue	n/a	n/a	n/a	n/a	n/a	n/a
198.03	2	Incongruent	Incongruent	1694	1	Right	Down	g	g
213.04	0.2	CenterCue	CenterCue	n/a	n/a	n/a	n/a	n/a	n/a
215.53	2	Congruent	Congruent	979	1	Left	Down	y	y
218.8	0.2	CenterCue	CenterCue	n/a	n/a	n/a	n/a	n/a	n/a
219.53	2	Congruent	Congruent	1330	1	Left	Up	y	y
225.05	0.2	NoCue	NoCue	n/a	n/a	n/a	n/a	n/a	n/a
231.78	2	Incongruent	Incongruent	1361	1	Right	Down	g	g
241.79	0.2	CenterCue	CenterCue	n/a	n/a	n/a	n/a	n/a	n/a
245.29	2	Congruent	Congruent	923	1	Right	Up	g	g
255.3	0.2	SpatialCue	SpatialCue	n/a	n/a	n/a	Up	n/a	n/a
256.53	2	Congruent	Congruent	1151	1	Right	Up	g	g
264.54	0.2	CenterCue	CenterCue	n/a	n/a	n/a	n/a	n/a	n/a
267.03	2	Congruent	Congruent	1069	1	Right	Up	g	g
270.79	0.2	SpatialCue	SpatialCue	n/a	n/a	n/a	Up	n/a	n/a
271.77	2	Incongruent	Incongruent	873	1	Left	Up	y	y
274.79	0.2	SpatialCue	SpatialCue	n/a	n/a	n/a	Down	n/a	n/a
275.27	2	Incongruent	Incongruent	1354	1	Right	Down	g	g
279.29	0.2	NoCue	NoCue	n/a	n/a	n/a	n/a	n/a	n/a
286.02	2	Congruent	Congruent	1089	1	Left	Down	y	y
289.53	0.2	NoCue	NoCue	n/a	n/a	n/a	n/a	n/a	n/a
290.26	2	Incongruent	Incongruent	1318	1	Left	Down	y	y
295.28	0.2	SpatialCue	SpatialCue	n/a	n/a	n/a	Up	n/a	n/a
307.27	2	Incongruent	Incongruent	1100	1	Left	Up	y	y
313.79	0.2	CenterCue	CenterCue	n/a	n/a	n/a	n/a	n/a	n/a
315.52	2	Incongruent	Incongruent	1311	1	Right	Down	g	g
330.53	0.2	SpatialCue	SpatialCue	n/a	n/a	n/a	Up	n/a	n/a
335.52	2	Congruent	Congruent	1106	1	Right	Up	g	g
338.79	0.2	CenterCue	CenterCue	n/a	n/a	n/a	n/a	n/a	n/a
339.27	2	Incongruent	Incongruent	1317	1	Left	Up	y	y
344.79	0.2	NoCue	NoCue	n/a	n/a	n/a	n/a	n/a	n/a
345.27	2	Congruent	Congruent	1048	1	Right	Down	g	g
