onset	duration	trial_type	trial_type_err	response_time	accuracy	target_dir	target_pos	correct_resp	resp
25.818	0.2	SpatialCue	SpatialCue	n/a	n/a	n/a	Down	n/a	n/a
26.301	2	Incongruent	Incongruent	730	1	Left	Down	y	y
41.311	0.2	CenterCue	CenterCue	n/a	n/a	n/a	n/a	n/a	n/a
42.56	2	Congruent	Congruent	666	1	Right	Down	g	g
49.073	0.2	NoCue	NoCue	n/a	n/a	n/a	n/a	n/a	n/a
55.82	2	Congruent	Congruent	1087	1	Right	Up	g	g
63.833	0.2	SpatialCue	CueErr	n/a	n/a	n/a	Up	n/a	n/a
66.315	2	Incongruent	TargetErr	797	0	Left	Up	y	g
69.83	0.2	CenterCue	CenterCue	n/a	n/a	n/a	n/a	n/a	n/a
70.313	2	Incongruent	Incongruent	862	1	Right	Down	g	g
74.328	0.2	SpatialCue	SpatialCue	n/a	n/a	n/a	Up	n/a	n/a
75.061	2	Congruent	Congruent	576	1	Left	Up	y	y
85.072	0.2	SpatialCue	SpatialCue	n/a	n/a	n/a	Down	n/a	n/a
86.821	2	Congruent	Congruent	559	1	Right	Down	g	g
90.086	0.2	CenterCue	CenterCue	n/a	n/a	n/a	n/a	n/a	n/a
91.069	2	Incongruent	Incongruent	1172	1	Right	Up	g	g
96.083	0.2	CenterCue	CenterCue	n/a	n/a	n/a	n/a	n/a	n/a
101.06	2	Congruent	Congruent	1417	1	Left	Up	y	y
104.83	0.2	SpatialCue	SpatialCue	n/a	n/a	n/a	Down	n/a	n/a
116.82	2	Congruent	Congruent	950	1	Left	Down	y	y
122.34	0.2	SpatialCue	SpatialCue	n/a	n/a	n/a	Up	n/a	n/a
122.82	2	Incongruent	Incongruent	565	1	Right	Up	g	g
125.83	0.2	NoCue	NoCue	n/a	n/a	n/a	n/a	n/a	n/a
129.32	2	Congruent	Congruent	953	1	Left	Down	y	y
133.83	0.2	NoCue	NoCue	n/a	n/a	n/a	n/a	n/a	n/a
145.82	2	Incongruent	Incongruent	1232	1	Left	Down	y	y
150.84	0.2	CenterCue	CenterCue	n/a	n/a	n/a	n/a	n/a	n/a
151.32	2	Congruent	Congruent	1676	1	Right	Up	g	g
155.84	0.2	CenterCue	CenterCue	n/a	n/a	n/a	n/a	n/a	n/a
160.82	2	Incongruent	Incongruent	844	1	Right	Down	g	g
164.83	0.2	CenterCue	CenterCue	n/a	n/a	n/a	n/a	n/a	n/a
166.56	2	Incongruent	Incongruent	879	1	Left	Up	y	y
169.58	0.2	SpatialCue	SpatialCue	n/a	n/a	n/a	Down	n/a	n/a
170.06	2	Incongruent	Incongruent	911	1	Right	Down	g	g
173.83	0.2	NoCue	NoCue	n/a	n/a	n/a	n/a	n/a	n/a
177.31	2	Incongruent	Incongruent	1663	1	Right	Down	g	g
185.32	0.2	NoCue	NoCue	n/a	n/a	n/a	n/a	n/a	n/a
186.31	2	Incongruent	Incongruent	2080	1	Left	Down	y	n/a
192.84	0.2	SpatialCue	SpatialCue	n/a	n/a	n/a	Up	n/a	n/a
194.07	2	Congruent	Congruent	608	1	Left	Up	y	y
197.58	0.2	NoCue	NoCue	n/a	n/a	n/a	n/a	n/a	n/a
198.07	2	Incongruent	Incongruent	604	1	Right	Up	g	g
213.07	0.2	NoCue	NoCue	n/a	n/a	n/a	n/a	n/a	n/a
215.57	2	Congruent	Congruent	1540	1	Right	Down	g	g
218.84	0.2	NoCue	NoCue	n/a	n/a	n/a	n/a	n/a	n/a
219.57	2	Congruent	Congruent	1243	1	Left	Up	y	y
225.09	0.2	SpatialCue	SpatialCue	n/a	n/a	n/a	Down	n/a	n/a
231.82	2	Congruent	Congruent	952	1	Right	Down	g	g
241.83	0.2	NoCue	NoCue	n/a	n/a	n/a	n/a	n/a	n/a
245.33	2	Congruent	Congruent	1325	1	Right	Up	g	g
255.34	0.2	CenterCue	CenterCue	n/a	n/a	n/a	n/a	n/a	n/a
256.57	2	Incongruent	Incongruent	1488	1	Left	Down	y	y
264.58	0.2	NoCue	NoCue	n/a	n/a	n/a	n/a	n/a	n/a
267.07	2	Congruent	Congruent	959	1	Left	Down	y	y
270.83	0.2	CenterCue	CenterCue	n/a	n/a	n/a	n/a	n/a	n/a
271.81	2	Congruent	Congruent	806	1	Left	Down	y	y
274.83	0.2	CenterCue	CenterCue	n/a	n/a	n/a	n/a	n/a	n/a
275.31	2	Congruent	Congruent	1831	1	Right	Up	g	g
279.33	0.2	SpatialCue	SpatialCue	n/a	n/a	n/a	Up	n/a	n/a
286.06	2	Incongruent	Incongruent	853	1	Left	Up	y	y
289.57	0.2	SpatialCue	SpatialCue	n/a	n/a	n/a	Up	n/a	n/a
290.3	2	Congruent	Congruent	588	1	Right	Up	g	g
295.32	0.2	CenterCue	CenterCue	n/a	n/a	n/a	n/a	n/a	n/a
307.31	2	Congruent	Congruent	747	1	Left	Down	y	y
313.82	0.2	NoCue	NoCue	n/a	n/a	n/a	n/a	n/a	n/a
315.56	2	Incongruent	Incongruent	2286	1	Right	Up	g	n/a
330.58	0.2	CenterCue	CenterCue	n/a	n/a	n/a	n/a	n/a	n/a
335.56	2	Incongruent	Incongruent	1073	1	Left	Up	y	y
338.83	0.2	NoCue	NoCue	n/a	n/a	n/a	n/a	n/a	n/a
339.31	2	Incongruent	Incongruent	1898	1	Left	Up	y	y
344.83	0.2	SpatialCue	SpatialCue	n/a	n/a	n/a	Down	n/a	n/a
345.31	2	Incongruent	Incongruent	1754	1	Right	Down	g	g
