onset	duration	trial_type	trial_type_err	response_time	accuracy	target_dir	target_pos	correct_resp	resp
25.818	0.2	CenterCue	CenterCue	n/a	n/a	n/a	n/a	n/a	n/a
26.301	2	Congruent	Congruent	885	1	Left	Down	y	y
41.31	0.2	NoCue	NoCue	n/a	n/a	n/a	n/a	n/a	n/a
42.559	2	Congruent	Congruent	980	1	Left	Up	y	y
49.073	0.2	SpatialCue	SpatialCue	n/a	n/a	n/a	Down	n/a	n/a
55.804	2	Incongruent	Incongruent	954	1	Right	Down	g	g
63.816	0.2	CenterCue	CenterCue	n/a	n/a	n/a	n/a	n/a	n/a
66.314	2	Congruent	Congruent	1137	1	Left	Up	y	y
69.829	0.2	NoCue	NoCue	n/a	n/a	n/a	n/a	n/a	n/a
70.312	2	Incongruent	Incongruent	961	1	Right	Down	g	g
74.327	0.2	CenterCue	CenterCue	n/a	n/a	n/a	n/a	n/a	n/a
75.06	2	Incongruent	Incongruent	1047	1	Left	Down	y	y
85.072	0.2	CenterCue	CenterCue	n/a	n/a	n/a	n/a	n/a	n/a
86.805	2	Incongruent	Incongruent	956	1	Left	Up	y	y
90.069	0.2	NoCue	NoCue	n/a	n/a	n/a	n/a	n/a	n/a
91.052	2	Incongruent	Incongruent	902	1	Right	Up	g	g
96.066	0.2	NoCue	NoCue	n/a	n/a	n/a	n/a	n/a	n/a
101.05	2	Congruent	Congruent	852	1	Left	Down	y	y
104.81	0.2	CenterCue	CenterCue	n/a	n/a	n/a	n/a	n/a	n/a
116.81	2	Incongruent	Incongruent	1042	1	Left	Down	y	y
122.32	0.2	CenterCue	CenterCue	n/a	n/a	n/a	n/a	n/a	n/a
122.8	2	Congruent	Congruent	869	1	Right	Down	g	g
125.82	0.2	SpatialCue	SpatialCue	n/a	n/a	n/a	Up	n/a	n/a
129.3	2	Incongruent	Incongruent	864	1	Left	Up	y	y
133.81	0.2	SpatialCue	SpatialCue	n/a	n/a	n/a	Down	n/a	n/a
145.81	2	Congruent	Congruent	912	1	Right	Down	g	g
150.82	0.2	NoCue	NoCue	n/a	n/a	n/a	n/a	n/a	n/a
151.31	2	Congruent	Congruent	898	1	Left	Down	y	y
155.82	0.2	NoCue	NoCue	n/a	n/a	n/a	n/a	n/a	n/a
160.8	2	Incongruent	Incongruent	1032	1	Left	Up	y	y
164.81	0.2	NoCue	NoCue	n/a	n/a	n/a	n/a	n/a	n/a
166.55	2	Incongruent	Incongruent	956	1	Right	Down	g	g
169.56	0.2	CenterCue	CenterCue	n/a	n/a	n/a	n/a	n/a	n/a
170.05	2	Congruent	Congruent	1027	1	Right	Up	g	g
173.81	0.2	SpatialCue	SpatialCue	n/a	n/a	n/a	Up	n/a	n/a
177.29	2	Congruent	Congruent	694	1	Right	Up	g	g
185.31	0.2	SpatialCue	SpatialCue	n/a	n/a	n/a	Down	n/a	n/a
186.29	2	Congruent	Congruent	712	1	Left	Down	y	y
192.8	0.2	CenterCue	CenterCue	n/a	n/a	n/a	n/a	n/a	n/a
194.03	2	Incongruent	Incongruent	1023	1	Right	Up	g	g
197.55	0.2	SpatialCue	SpatialCue	n/a	n/a	n/a	Down	n/a	n/a
198.03	2	Congruent	Congruent	759	1	Left	Down	y	y
213.04	0.2	SpatialCue	SpatialCue	n/a	n/a	n/a	Up	n/a	n/a
215.54	2	Incongruent	Incongruent	905	1	Left	Up	y	y
218.81	0.2	SpatialCue	SpatialCue	n/a	n/a	n/a	Down	n/a	n/a
219.54	2	Incongruent	Incongruent	850	1	Right	Down	g	g
225.05	0.2	CenterCue	CenterCue	n/a	n/a	n/a	n/a	n/a	n/a
231.78	2	Incongruent	Incongruent	1083	1	Right	Up	g	g
241.79	0.2	SpatialCue	SpatialCue	n/a	n/a	n/a	Down	n/a	n/a
245.29	2	Incongruent	Incongruent	843	1	Left	Down	y	y
255.3	0.2	NoCue	NoCue	n/a	n/a	n/a	n/a	n/a	n/a
256.55	2	Incongruent	Incongruent	1116	1	Left	Up	y	y
264.57	0.2	SpatialCue	SpatialCue	n/a	n/a	n/a	Up	n/a	n/a
267.05	2	Incongruent	Incongruent	918	1	Right	Up	g	g
270.81	0.2	NoCue	NoCue	n/a	n/a	n/a	n/a	n/a	n/a
271.8	2	Congruent	Congruent	1035	1	Right	Down	g	g
274.81	0.2	NoCue	NoCue	n/a	n/a	n/a	n/a	n/a	n/a
275.29	2	Congruent	Congruent	1121	1	Right	Up	g	g
279.31	0.2	CenterCue	CenterCue	n/a	n/a	n/a	n/a	n/a	n/a
286.04	2	Congruent	Congruent	941	1	Left	Up	y	y
289.55	0.2	CenterCue	CenterCue	n/a	n/a	n/a	n/a	n/a	n/a
290.29	2	Incongruent	Incongruent	998	1	Right	Down	g	g
295.3	0.2	NoCue	NoCue	n/a	n/a	n/a	n/a	n/a	n/a
307.3	2	Congruent	Congruent	938	1	Right	Up	g	g
313.81	0.2	SpatialCue	SpatialCue	n/a	n/a	n/a	Up	n/a	n/a
315.54	2	Congruent	Congruent	780	1	Right	Up	g	g
330.55	0.2	NoCue	NoCue	n/a	n/a	n/a	n/a	n/a	n/a
335.55	2	Incongruent	Incongruent	1113	1	Left	Down	y	y
338.81	0.2	SpatialCue	SpatialCue	n/a	n/a	n/a	Up	n/a	n/a
339.3	2	Congruent	Congruent	773	1	Left	Up	y	y
344.81	0.2	CenterCue	CenterCue	n/a	n/a	n/a	n/a	n/a	n/a
345.29	2	Congruent	Congruent	859	1	Right	Down	g	g
