onset	duration	trial_type	trial_type_err	response_time	accuracy	target_dir	target_pos	correct_resp	resp
25.807	0.2	NoCue	NoCue	n/a	n/a	n/a	n/a	n/a	n/a
26.29	2	Congruent	Congruent	911	1	Left	Up	y	y
41.299	0.2	SpatialCue	SpatialCue	n/a	n/a	n/a	Down	n/a	n/a
42.549	2	Incongruent	Incongruent	1162	1	Right	Down	g	g
49.062	0.2	CenterCue	CenterCue	n/a	n/a	n/a	n/a	n/a	n/a
55.809	2	Congruent	Congruent	936	1	Left	Down	y	y
63.821	0.2	NoCue	NoCue	n/a	n/a	n/a	n/a	n/a	n/a
66.304	2	Congruent	Congruent	1565	1	Right	Up	g	g
69.818	0.2	SpatialCue	SpatialCue	n/a	n/a	n/a	Up	n/a	n/a
70.301	2	Congruent	Congruent	769	1	Left	Up	y	y
74.316	0.2	NoCue	NoCue	n/a	n/a	n/a	n/a	n/a	n/a
75.049	2	Incongruent	Incongruent	1250	1	Left	Down	y	y
85.06	0.2	NoCue	NoCue	n/a	n/a	n/a	n/a	n/a	n/a
86.794	2	Incongruent	Incongruent	1269	1	Right	Up	g	g
90.058	0.2	SpatialCue	SpatialCue	n/a	n/a	n/a	Down	n/a	n/a
91.041	2	Congruent	Congruent	848	1	Right	Down	g	g
96.055	0.2	SpatialCue	SpatialCue	n/a	n/a	n/a	Down	n/a	n/a
101.04	2	Incongruent	Incongruent	1105	1	Left	Down	y	y
104.8	0.2	NoCue	NoCue	n/a	n/a	n/a	n/a	n/a	n/a
116.8	2	Incongruent	Incongruent	1095	1	Left	Up	y	y
122.31	0.2	NoCue	NoCue	n/a	n/a	n/a	n/a	n/a	n/a
122.79	2	Congruent	Congruent	833	1	Left	Up	y	y
125.81	0.2	CenterCue	CenterCue	n/a	n/a	n/a	n/a	n/a	n/a
129.29	2	Congruent	Congruent	903	1	Right	Down	g	g
133.8	0.2	CenterCue	CenterCue	n/a	n/a	n/a	n/a	n/a	n/a
145.8	2	Incongruent	Incongruent	954	1	Left	Up	y	y
150.81	0.2	SpatialCue	SpatialCue	n/a	n/a	n/a	Up	n/a	n/a
151.29	2	Incongruent	Incongruent	1133	1	Right	Up	g	g
155.81	0.2	SpatialCue	SpatialCue	n/a	n/a	n/a	Down	n/a	n/a
160.79	2	Congruent	Congruent	1061	1	Left	Down	y	y
164.8	0.2	SpatialCue	SpatialCue	n/a	n/a	n/a	Down	n/a	n/a
166.54	2	Congruent	Congruent	747	1	Left	Down	y	y
169.55	0.2	NoCue	NoCue	n/a	n/a	n/a	n/a	n/a	n/a
170.03	2	Congruent	Congruent	804	1	Right	Down	g	g
173.8	0.2	CenterCue	CenterCue	n/a	n/a	n/a	n/a	n/a	n/a
177.28	2	Incongruent	Incongruent	1156	1	Right	Up	g	g
185.29	0.2	CenterCue	CenterCue	n/a	n/a	n/a	n/a	n/a	n/a
186.28	2	Incongruent	Incongruent	1209	1	Left	Down	y	y
192.79	0.2	NoCue	NoCue	n/a	n/a	n/a	n/a	n/a	n/a
194.02	2	Incongruent	Incongruent	1077	1	Right	Up	g	g
197.54	0.2	CenterCue	CenterCue	n/a	n/a	n/a	n/a	n/a	n/a
198.02	2	Incongruent	Incongruent	1127	1	Right	Down	g	g
213.03	0.2	CenterCue	CenterCue	n/a	n/a	n/a	n/a	n/a	n/a
215.53	2	Congruent	Congruent	970	1	Left	Down	y	y
218.79	0.2	CenterCue	CenterCue	n/a	n/a	n/a	n/a	n/a	n/a
219.53	2	Congruent	Congruent	787	1	Left	Up	y	y
225.04	0.2	NoCue	NoCue	n/a	n/a	n/a	n/a	n/a	n/a
231.77	2	Incongruent	Incongruent	1030	1	Right	Down	g	g
241.78	0.2	CenterCue	CenterCue	n/a	n/a	n/a	n/a	n/a	n/a
245.28	2	Congruent	Congruent	847	1	Right	Up	g	g
255.29	0.2	SpatialCue	SpatialCue	n/a	n/a	n/a	Up	n/a	n/a
256.52	2	Congruent	Congruent	803	1	Right	Up	g	g
264.54	0.2	CenterCue	CenterCue	n/a	n/a	n/a	n/a	n/a	n/a
267.04	2	Congruent	Congruent	739	1	Right	Up	g	g
270.8	0.2	SpatialCue	CueErr	n/a	n/a	n/a	Up	n/a	n/a
271.78	2	Incongruent	TargetErr	625	0	Left	Up	y	g
274.8	0.2	SpatialCue	SpatialCue	n/a	n/a	n/a	Down	n/a	n/a
275.28	2	Incongruent	Incongruent	1529	1	Right	Down	g	g
279.3	0.2	NoCue	NoCue	n/a	n/a	n/a	n/a	n/a	n/a
286.03	2	Congruent	Congruent	1106	1	Left	Down	y	y
289.54	0.2	NoCue	NoCue	n/a	n/a	n/a	n/a	n/a	n/a
290.27	2	Incongruent	Incongruent	1082	1	Left	Down	y	y
295.29	0.2	SpatialCue	SpatialCue	n/a	n/a	n/a	Up	n/a	n/a
307.28	2	Incongruent	Incongruent	1030	1	Left	Up	y	y
313.8	0.2	CenterCue	CenterCue	n/a	n/a	n/a	n/a	n/a	n/a
315.53	2	Incongruent	Incongruent	1112	1	Right	Down	g	g
330.54	0.2	SpatialCue	SpatialCue	n/a	n/a	n/a	Up	n/a	n/a
335.53	2	Congruent	Congruent	822	1	Right	Up	g	g
338.8	0.2	CenterCue	CenterCue	n/a	n/a	n/a	n/a	n/a	n/a
339.28	2	Incongruent	Incongruent	927	1	Left	Up	y	y
344.8	0.2	NoCue	NoCue	n/a	n/a	n/a	n/a	n/a	n/a
345.28	2	Congruent	Congruent	890	1	Right	Down	g	g
