onset	duration	trial_type	trial_type_err	response_time	accuracy	target_dir	target_pos	correct_resp	resp
25.819	0.2	CenterCue	CenterCue	n/a	n/a	n/a	n/a	n/a	n/a
26.302	2	Incongruent	Incongruent	1392	1	Left	Up	y	y
41.311	0.2	NoCue	NoCue	n/a	n/a	n/a	n/a	n/a	n/a
42.56	2	Incongruent	Incongruent	1028	1	Right	Down	g	g
49.074	0.2	SpatialCue	SpatialCue	n/a	n/a	n/a	Up	n/a	n/a
55.82	2	Congruent	Congruent	758	1	Right	Up	g	g
63.833	0.2	CenterCue	CenterCue	n/a	n/a	n/a	n/a	n/a	n/a
66.315	2	Incongruent	Incongruent	1421	1	Left	Down	y	y
69.83	0.2	NoCue	NoCue	n/a	n/a	n/a	n/a	n/a	n/a
70.313	2	Congruent	Congruent	1036	1	Left	Up	y	y
74.328	0.2	CenterCue	CenterCue	n/a	n/a	n/a	n/a	n/a	n/a
75.061	2	Congruent	Congruent	826	1	Right	Down	g	g
85.072	0.2	CenterCue	CenterCue	n/a	n/a	n/a	n/a	n/a	n/a
86.821	2	Congruent	Congruent	1110	1	Right	Down	g	g
90.086	0.2	NoCue	NoCue	n/a	n/a	n/a	n/a	n/a	n/a
91.069	2	Congruent	Congruent	868	1	Right	Down	g	g
96.083	0.2	NoCue	NoCue	n/a	n/a	n/a	n/a	n/a	n/a
101.06	2	Incongruent	Incongruent	1016	1	Left	Up	y	y
104.83	0.2	CenterCue	CenterCue	n/a	n/a	n/a	n/a	n/a	n/a
116.82	2	Congruent	Congruent	1106	1	Left	Up	y	y
122.34	0.2	CenterCue	CenterCue	n/a	n/a	n/a	n/a	n/a	n/a
122.82	2	Incongruent	Incongruent	1091	1	Right	Down	g	g
125.83	0.2	SpatialCue	SpatialCue	n/a	n/a	n/a	Up	n/a	n/a
129.32	2	Congruent	Congruent	819	1	Right	Up	g	g
133.83	0.2	SpatialCue	SpatialCue	n/a	n/a	n/a	Down	n/a	n/a
145.82	2	Incongruent	Incongruent	932	1	Left	Down	y	y
150.84	0.2	NoCue	NoCue	n/a	n/a	n/a	n/a	n/a	n/a
151.32	2	Incongruent	Incongruent	1026	1	Right	Down	g	g
155.84	0.2	NoCue	NoCue	n/a	n/a	n/a	n/a	n/a	n/a
160.82	2	Congruent	Congruent	853	1	Left	Up	y	y
164.83	0.2	NoCue	NoCue	n/a	n/a	n/a	n/a	n/a	n/a
166.56	2	Congruent	Congruent	1012	1	Right	Up	g	g
169.58	0.2	CenterCue	CenterCue	n/a	n/a	n/a	n/a	n/a	n/a
170.06	2	Incongruent	Incongruent	1127	1	Right	Up	g	g
173.83	0.2	SpatialCue	SpatialCue	n/a	n/a	n/a	Down	n/a	n/a
177.31	2	Incongruent	Incongruent	891	1	Right	Down	g	g
185.32	0.2	SpatialCue	SpatialCue	n/a	n/a	n/a	Up	n/a	n/a
186.31	2	Incongruent	Incongruent	1341	1	Left	Up	y	y
192.82	0.2	CenterCue	CenterCue	n/a	n/a	n/a	n/a	n/a	n/a
194.05	2	Congruent	Congruent	841	1	Left	Down	y	y
197.57	0.2	SpatialCue	SpatialCue	n/a	n/a	n/a	Up	n/a	n/a
198.05	2	Incongruent	Incongruent	846	1	Right	Up	g	g
213.06	0.2	SpatialCue	SpatialCue	n/a	n/a	n/a	Down	n/a	n/a
215.56	2	Congruent	Congruent	739	1	Left	Down	y	y
218.82	0.2	SpatialCue	SpatialCue	n/a	n/a	n/a	Down	n/a	n/a
219.55	2	Congruent	Congruent	829	1	Right	Down	g	g
225.07	0.2	CenterCue	CenterCue	n/a	n/a	n/a	n/a	n/a	n/a
231.8	2	Congruent	Congruent	1053	1	Left	Up	y	y
241.81	0.2	SpatialCue	SpatialCue	n/a	n/a	n/a	Up	n/a	n/a
245.31	2	Congruent	Congruent	1319	1	Left	Up	y	y
255.32	0.2	NoCue	NoCue	n/a	n/a	n/a	n/a	n/a	n/a
256.55	2	Congruent	Congruent	855	1	Right	Down	g	g
264.56	0.2	SpatialCue	SpatialCue	n/a	n/a	n/a	Down	n/a	n/a
267.05	2	Congruent	Congruent	716	1	Left	Down	y	y
270.81	0.2	NoCue	NoCue	n/a	n/a	n/a	n/a	n/a	n/a
271.8	2	Incongruent	Incongruent	1020	1	Left	Down	y	y
274.81	0.2	NoCue	NoCue	n/a	n/a	n/a	n/a	n/a	n/a
275.29	2	Incongruent	Incongruent	1220	1	Right	Up	g	g
279.31	0.2	CenterCue	CenterCue	n/a	n/a	n/a	n/a	n/a	n/a
286.04	2	Incongruent	Incongruent	1393	1	Left	Down	y	y
289.55	0.2	CenterCue	CenterCue	n/a	n/a	n/a	n/a	n/a	n/a
290.29	2	Congruent	Congruent	830	1	Right	Up	g	g
295.3	0.2	NoCue	NoCue	n/a	n/a	n/a	n/a	n/a	n/a
307.29	2	Incongruent	Incongruent	1091	1	Left	Up	y	y
313.81	0.2	SpatialCue	SpatialCue	n/a	n/a	n/a	Down	n/a	n/a
315.54	2	Incongruent	Incongruent	835	1	Left	Down	y	y
330.55	0.2	NoCue	NoCue	n/a	n/a	n/a	n/a	n/a	n/a
335.55	2	Congruent	Congruent	985	1	Left	Down	y	y
338.81	0.2	SpatialCue	SpatialCue	n/a	n/a	n/a	Up	n/a	n/a
339.29	2	Incongruent	Incongruent	1348	1	Right	Up	g	g
344.81	0.2	CenterCue	CenterCue	n/a	n/a	n/a	n/a	n/a	n/a
345.29	2	Incongruent	Incongruent	1113	1	Right	Up	g	g
