onset	duration	trial_type	trial_type_err	response_time	accuracy	target_dir	target_pos	correct_resp	resp
25.807	0.2	SpatialCue	SpatialCue	n/a	n/a	n/a	Down	n/a	n/a
26.29	2	Incongruent	Incongruent	470	1	Left	Down	y	y
41.299	0.2	CenterCue	CenterCue	n/a	n/a	n/a	n/a	n/a	n/a
42.549	2	Congruent	Congruent	601	1	Right	Down	g	g
49.062	0.2	NoCue	NoCue	n/a	n/a	n/a	n/a	n/a	n/a
55.809	2	Congruent	Congruent	607	1	Right	Up	g	g
63.821	0.2	SpatialCue	SpatialCue	n/a	n/a	n/a	Up	n/a	n/a
66.304	2	Incongruent	Incongruent	753	1	Left	Up	y	y
69.818	0.2	CenterCue	CenterCue	n/a	n/a	n/a	n/a	n/a	n/a
70.301	2	Incongruent	Incongruent	724	1	Right	Down	g	g
74.316	0.2	SpatialCue	SpatialCue	n/a	n/a	n/a	Up	n/a	n/a
75.049	2	Congruent	Congruent	476	1	Left	Up	y	y
85.061	0.2	SpatialCue	SpatialCue	n/a	n/a	n/a	Down	n/a	n/a
86.794	2	Congruent	Congruent	481	1	Right	Down	g	g
90.058	0.2	CenterCue	CenterCue	n/a	n/a	n/a	n/a	n/a	n/a
91.041	2	Incongruent	Incongruent	609	1	Right	Up	g	g
96.055	0.2	CenterCue	CenterCue	n/a	n/a	n/a	n/a	n/a	n/a
101.04	2	Congruent	Congruent	708	1	Left	Up	y	y
104.8	0.2	SpatialCue	SpatialCue	n/a	n/a	n/a	Down	n/a	n/a
116.8	2	Congruent	Congruent	527	1	Left	Down	y	y
122.31	0.2	SpatialCue	SpatialCue	n/a	n/a	n/a	Up	n/a	n/a
122.79	2	Incongruent	Incongruent	624	1	Right	Up	g	g
125.81	0.2	NoCue	NoCue	n/a	n/a	n/a	n/a	n/a	n/a
129.29	2	Congruent	Congruent	470	1	Left	Down	y	y
133.8	0.2	NoCue	NoCue	n/a	n/a	n/a	n/a	n/a	n/a
145.8	2	Incongruent	Incongruent	601	1	Left	Down	y	y
150.81	0.2	CenterCue	CenterCue	n/a	n/a	n/a	n/a	n/a	n/a
151.29	2	Congruent	Congruent	575	1	Right	Up	g	g
155.81	0.2	CenterCue	CenterCue	n/a	n/a	n/a	n/a	n/a	n/a
160.79	2	Incongruent	Incongruent	735	1	Right	Down	g	g
164.8	0.2	CenterCue	CenterCue	n/a	n/a	n/a	n/a	n/a	n/a
166.54	2	Incongruent	Incongruent	566	1	Left	Up	y	y
169.55	0.2	SpatialCue	SpatialCue	n/a	n/a	n/a	Down	n/a	n/a
170.03	2	Incongruent	Incongruent	443	1	Right	Down	g	g
173.8	0.2	NoCue	NoCue	n/a	n/a	n/a	n/a	n/a	n/a
177.28	2	Incongruent	Incongruent	666	1	Right	Down	g	g
185.29	0.2	NoCue	NoCue	n/a	n/a	n/a	n/a	n/a	n/a
186.28	2	Incongruent	Incongruent	561	1	Left	Down	y	y
192.79	0.2	SpatialCue	SpatialCue	n/a	n/a	n/a	Up	n/a	n/a
194.02	2	Congruent	Congruent	549	1	Left	Up	y	y
197.54	0.2	NoCue	NoCue	n/a	n/a	n/a	n/a	n/a	n/a
198.02	2	Incongruent	Incongruent	598	1	Right	Up	g	g
213.03	0.2	NoCue	NoCue	n/a	n/a	n/a	n/a	n/a	n/a
215.53	2	Congruent	Congruent	668	1	Right	Down	g	g
218.79	0.2	NoCue	NoCue	n/a	n/a	n/a	n/a	n/a	n/a
219.53	2	Congruent	Congruent	639	1	Left	Up	y	y
225.04	0.2	SpatialCue	SpatialCue	n/a	n/a	n/a	Down	n/a	n/a
231.79	2	Congruent	Congruent	551	1	Right	Down	g	g
241.8	0.2	NoCue	NoCue	n/a	n/a	n/a	n/a	n/a	n/a
245.3	2	Congruent	Congruent	635	1	Right	Up	g	g
255.31	0.2	CenterCue	CenterCue	n/a	n/a	n/a	n/a	n/a	n/a
256.54	2	Incongruent	Incongruent	655	1	Left	Down	y	y
264.55	0.2	NoCue	NoCue	n/a	n/a	n/a	n/a	n/a	n/a
267.04	2	Congruent	Congruent	629	1	Left	Down	y	y
270.8	0.2	CenterCue	CenterCue	n/a	n/a	n/a	n/a	n/a	n/a
271.78	2	Congruent	Congruent	554	1	Left	Down	y	y
274.8	0.2	CenterCue	CenterCue	n/a	n/a	n/a	n/a	n/a	n/a
275.28	2	Congruent	Congruent	493	1	Right	Up	g	g
279.3	0.2	SpatialCue	SpatialCue	n/a	n/a	n/a	Up	n/a	n/a
286.03	2	Incongruent	Incongruent	654	1	Left	Up	y	y
289.54	0.2	SpatialCue	SpatialCue	n/a	n/a	n/a	Up	n/a	n/a
290.27	2	Congruent	Congruent	469	1	Right	Up	g	g
295.29	0.2	CenterCue	CenterCue	n/a	n/a	n/a	n/a	n/a	n/a
307.28	2	Congruent	Congruent	586	1	Left	Down	y	y
313.8	0.2	NoCue	NoCue	n/a	n/a	n/a	n/a	n/a	n/a
315.53	2	Incongruent	Incongruent	715	1	Right	Up	g	g
330.54	0.2	CenterCue	CenterCue	n/a	n/a	n/a	n/a	n/a	n/a
335.54	2	Incongruent	Incongruent	677	1	Left	Up	y	y
338.8	0.2	NoCue	NoCue	n/a	n/a	n/a	n/a	n/a	n/a
339.28	2	Incongruent	Incongruent	710	1	Left	Up	y	y
344.8	0.2	SpatialCue	SpatialCue	n/a	n/a	n/a	Down	n/a	n/a
345.28	2	Incongruent	Incongruent	603	1	Right	Down	g	g
