onset	duration	trial_type	trial_type_err	response_time	accuracy	target_dir	target_pos	correct_resp	resp
25.811	0.2	NoCue	NoCue	n/a	n/a	n/a	n/a	n/a	n/a
26.295	2	Incongruent	Incongruent	1144	1	Left	Down	y	y
41.304	0.2	SpatialCue	SpatialCue	n/a	n/a	n/a	Up	n/a	n/a
42.553	2	Congruent	Congruent	934	1	Left	Up	y	y
49.066	0.2	CenterCue	CenterCue	n/a	n/a	n/a	n/a	n/a	n/a
55.813	2	Incongruent	Incongruent	1162	1	Right	Down	g	g
63.826	0.2	NoCue	NoCue	n/a	n/a	n/a	n/a	n/a	n/a
66.308	2	Incongruent	Incongruent	1203	1	Right	Down	g	g
69.823	0.2	SpatialCue	SpatialCue	n/a	n/a	n/a	Up	n/a	n/a
70.306	2	Incongruent	Incongruent	1077	1	Right	Up	g	g
74.321	0.2	NoCue	NoCue	n/a	n/a	n/a	n/a	n/a	n/a
75.054	2	Congruent	Congruent	857	1	Left	Up	y	y
85.065	0.2	NoCue	NoCue	n/a	n/a	n/a	n/a	n/a	n/a
86.814	2	Congruent	Congruent	1665	1	Right	Up	g	g
90.079	0.2	SpatialCue	SpatialCue	n/a	n/a	n/a	Down	n/a	n/a
91.062	2	Incongruent	Incongruent	969	1	Left	Down	y	y
96.076	0.2	SpatialCue	SpatialCue	n/a	n/a	n/a	Up	n/a	n/a
101.06	2	Congruent	Congruent	966	1	Left	Up	y	y
104.82	0.2	NoCue	NoCue	n/a	n/a	n/a	n/a	n/a	n/a
116.82	2	Congruent	Congruent	1183	1	Left	Up	y	y
122.33	0.2	NoCue	NoCue	n/a	n/a	n/a	n/a	n/a	n/a
122.81	2	Incongruent	Incongruent	1433	1	Right	Up	g	g
125.83	0.2	CenterCue	CenterCue	n/a	n/a	n/a	n/a	n/a	n/a
129.31	2	Incongruent	Incongruent	1400	1	Left	Up	y	y
133.82	0.2	CenterCue	CenterCue	n/a	n/a	n/a	n/a	n/a	n/a
145.82	2	Congruent	Congruent	1084	1	Left	Down	y	y
150.83	0.2	SpatialCue	SpatialCue	n/a	n/a	n/a	Up	n/a	n/a
151.31	2	Congruent	Congruent	907	1	Right	Up	g	g
155.83	0.2	SpatialCue	SpatialCue	n/a	n/a	n/a	Down	n/a	n/a
160.81	2	Incongruent	Incongruent	971	1	Right	Down	g	g
164.82	0.2	SpatialCue	SpatialCue	n/a	n/a	n/a	Up	n/a	n/a
166.56	2	Incongruent	Incongruent	896	1	Right	Up	g	g
169.57	0.2	NoCue	NoCue	n/a	n/a	n/a	n/a	n/a	n/a
170.06	2	Incongruent	Incongruent	982	1	Left	Up	y	y
173.82	0.2	CenterCue	CenterCue	n/a	n/a	n/a	n/a	n/a	n/a
177.3	2	Congruent	Congruent	1032	1	Left	Down	y	y
185.31	0.2	CenterCue	CenterCue	n/a	n/a	n/a	n/a	n/a	n/a
186.3	2	Congruent	Congruent	996	1	Right	Down	g	g
192.81	0.2	NoCue	NoCue	n/a	n/a	n/a	n/a	n/a	n/a
194.04	2	Congruent	Congruent	1090	1	Right	Down	g	g
197.56	0.2	CenterCue	CenterCue	n/a	n/a	n/a	n/a	n/a	n/a
198.04	2	Congruent	Congruent	908	1	Right	Up	g	g
213.05	0.2	CenterCue	CenterCue	n/a	n/a	n/a	n/a	n/a	n/a
215.55	2	Incongruent	Incongruent	1167	1	Left	Up	y	y
218.81	0.2	CenterCue	CenterCue	n/a	n/a	n/a	n/a	n/a	n/a
219.55	2	Incongruent	Incongruent	993	1	Left	Down	y	y
225.06	0.2	NoCue	NoCue	n/a	n/a	n/a	n/a	n/a	n/a
231.79	2	Congruent	Congruent	980	1	Right	Down	g	g
241.8	0.2	CenterCue	CenterCue	n/a	n/a	n/a	n/a	n/a	n/a
245.3	2	Incongruent	Incongruent	1007	1	Right	Down	g	g
255.31	0.2	SpatialCue	SpatialCue	n/a	n/a	n/a	Up	n/a	n/a
256.55	2	Incongruent	Incongruent	858	1	Left	Up	y	y
264.56	0.2	CenterCue	CenterCue	n/a	n/a	n/a	n/a	n/a	n/a
267.04	2	Incongruent	Incongruent	1019	1	Right	Up	g	g
270.81	0.2	SpatialCue	SpatialCue	n/a	n/a	n/a	Down	n/a	n/a
271.79	2	Congruent	Congruent	752	1	Right	Down	g	g
274.8	0.2	SpatialCue	SpatialCue	n/a	n/a	n/a	Down	n/a	n/a
275.29	2	Congruent	Congruent	638	1	Left	Down	y	y
279.3	0.2	NoCue	NoCue	n/a	n/a	n/a	n/a	n/a	n/a
286.03	2	Incongruent	Incongruent	1101	1	Right	Up	g	g
289.55	0.2	NoCue	NoCue	n/a	n/a	n/a	n/a	n/a	n/a
290.28	2	Congruent	Congruent	830	1	Left	Down	y	y
295.29	0.2	SpatialCue	SpatialCue	n/a	n/a	n/a	Down	n/a	n/a
307.29	2	Congruent	Congruent	997	1	Right	Down	g	g
313.8	0.2	CenterCue	CenterCue	n/a	n/a	n/a	n/a	n/a	n/a
315.53	2	Congruent	Congruent	735	1	Left	Up	y	y
330.54	0.2	SpatialCue	SpatialCue	n/a	n/a	n/a	Down	n/a	n/a
335.54	2	Incongruent	Incongruent	928	1	Left	Down	y	y
338.81	0.2	CenterCue	CenterCue	n/a	n/a	n/a	n/a	n/a	n/a
339.29	2	Congruent	Congruent	908	1	Right	Up	g	g
344.8	0.2	NoCue	NoCue	n/a	n/a	n/a	n/a	n/a	n/a
345.29	2	Incongruent	Incongruent	959	1	Left	Down	y	y
