onset	duration	trial_type	trial_type_err	response_time	accuracy	target_dir	target_pos	correct_resp	resp
25.809	0.2	CenterCue	CenterCue	n/a	n/a	n/a	n/a	n/a	n/a
26.292	2	Congruent	Congruent	651	1	Left	Down	y	y
41.301	0.2	NoCue	NoCue	n/a	n/a	n/a	n/a	n/a	n/a
42.55	2	Congruent	Congruent	799	1	Left	Up	y	y
49.064	0.2	SpatialCue	SpatialCue	n/a	n/a	n/a	Down	n/a	n/a
55.81	2	Incongruent	Incongruent	1178	1	Right	Down	g	g
63.823	0.2	CenterCue	CenterCue	n/a	n/a	n/a	n/a	n/a	n/a
66.305	2	Congruent	Congruent	657	1	Left	Up	y	y
69.82	0.2	NoCue	NoCue	n/a	n/a	n/a	n/a	n/a	n/a
70.303	2	Incongruent	Incongruent	909	1	Right	Down	g	g
74.318	0.2	CenterCue	CenterCue	n/a	n/a	n/a	n/a	n/a	n/a
75.051	2	Incongruent	Incongruent	872	1	Left	Down	y	y
85.062	0.2	CenterCue	CenterCue	n/a	n/a	n/a	n/a	n/a	n/a
86.796	2	Incongruent	Incongruent	807	1	Left	Up	y	y
90.06	0.2	NoCue	NoCue	n/a	n/a	n/a	n/a	n/a	n/a
91.043	2	Incongruent	Incongruent	664	1	Right	Up	g	g
96.057	0.2	NoCue	NoCue	n/a	n/a	n/a	n/a	n/a	n/a
101.04	2	Congruent	Congruent	1232	1	Left	Down	y	y
104.8	0.2	CenterCue	CenterCue	n/a	n/a	n/a	n/a	n/a	n/a
116.8	2	Incongruent	Incongruent	952	1	Left	Down	y	y
122.31	0.2	CenterCue	CenterCue	n/a	n/a	n/a	n/a	n/a	n/a
122.79	2	Congruent	Congruent	724	1	Right	Down	g	g
125.81	0.2	SpatialCue	SpatialCue	n/a	n/a	n/a	Up	n/a	n/a
129.29	2	Incongruent	Incongruent	707	1	Left	Up	y	y
133.81	0.2	SpatialCue	SpatialCue	n/a	n/a	n/a	Down	n/a	n/a
145.8	2	Congruent	Congruent	679	1	Right	Down	g	g
150.81	0.2	NoCue	NoCue	n/a	n/a	n/a	n/a	n/a	n/a
151.3	2	Congruent	Congruent	766	1	Left	Down	y	y
155.81	0.2	NoCue	NoCue	n/a	n/a	n/a	n/a	n/a	n/a
160.79	2	Incongruent	Incongruent	1014	1	Left	Up	y	y
164.81	0.2	NoCue	NoCue	n/a	n/a	n/a	n/a	n/a	n/a
166.54	2	Incongruent	Incongruent	1280	1	Right	Down	g	g
169.55	0.2	CenterCue	CenterCue	n/a	n/a	n/a	n/a	n/a	n/a
170.04	2	Congruent	Congruent	713	1	Right	Up	g	g
173.8	0.2	SpatialCue	SpatialCue	n/a	n/a	n/a	Up	n/a	n/a
177.28	2	Congruent	Congruent	588	1	Right	Up	g	g
185.3	0.2	SpatialCue	SpatialCue	n/a	n/a	n/a	Down	n/a	n/a
186.28	2	Congruent	Congruent	607	1	Left	Down	y	y
192.79	0.2	CenterCue	CenterCue	n/a	n/a	n/a	n/a	n/a	n/a
194.03	2	Incongruent	Incongruent	777	1	Right	Up	g	g
197.54	0.2	SpatialCue	SpatialCue	n/a	n/a	n/a	Down	n/a	n/a
198.02	2	Congruent	Congruent	622	1	Left	Down	y	y
213.03	0.2	SpatialCue	SpatialCue	n/a	n/a	n/a	Up	n/a	n/a
215.53	2	Incongruent	Incongruent	813	1	Left	Up	y	y
218.79	0.2	SpatialCue	SpatialCue	n/a	n/a	n/a	Down	n/a	n/a
219.53	2	Incongruent	Incongruent	953	1	Right	Down	g	g
225.04	0.2	CenterCue	CenterCue	n/a	n/a	n/a	n/a	n/a	n/a
231.77	2	Incongruent	Incongruent	1008	1	Right	Up	g	g
241.78	0.2	SpatialCue	SpatialCue	n/a	n/a	n/a	Down	n/a	n/a
245.28	2	Incongruent	Incongruent	817	1	Left	Down	y	y
255.29	0.2	NoCue	NoCue	n/a	n/a	n/a	n/a	n/a	n/a
256.53	2	Incongruent	Incongruent	828	1	Left	Up	y	y
264.54	0.2	SpatialCue	SpatialCue	n/a	n/a	n/a	Up	n/a	n/a
267.02	2	Incongruent	Incongruent	881	1	Right	Up	g	g
270.79	0.2	NoCue	NoCue	n/a	n/a	n/a	n/a	n/a	n/a
271.77	2	Congruent	Congruent	819	1	Right	Down	g	g
274.78	0.2	NoCue	NoCue	n/a	n/a	n/a	n/a	n/a	n/a
275.27	2	Congruent	Congruent	884	1	Right	Up	g	g
279.28	0.2	CenterCue	CenterCue	n/a	n/a	n/a	n/a	n/a	n/a
286.01	2	Congruent	Congruent	674	1	Left	Up	y	y
289.53	0.2	CenterCue	CenterCue	n/a	n/a	n/a	n/a	n/a	n/a
290.26	2	Incongruent	Incongruent	782	1	Right	Down	g	g
295.27	0.2	NoCue	NoCue	n/a	n/a	n/a	n/a	n/a	n/a
307.27	2	Congruent	Congruent	903	1	Right	Up	g	g
313.78	0.2	SpatialCue	SpatialCue	n/a	n/a	n/a	Up	n/a	n/a
315.51	2	Congruent	Congruent	646	1	Right	Up	g	g
330.52	0.2	NoCue	NoCue	n/a	n/a	n/a	n/a	n/a	n/a
335.52	2	Incongruent	Incongruent	867	1	Left	Down	y	y
338.79	0.2	SpatialCue	SpatialCue	n/a	n/a	n/a	Up	n/a	n/a
339.27	2	Congruent	Congruent	579	1	Left	Up	y	y
344.78	0.2	CenterCue	CenterCue	n/a	n/a	n/a	n/a	n/a	n/a
345.26	2	Congruent	Congruent	597	1	Right	Down	g	g
