onset	duration	trial_type	trial_type_err	response_time	accuracy	target_dir	target_pos	correct_resp	resp
25.813	0.2	SpatialCue	SpatialCue	n/a	n/a	n/a	Down	n/a	n/a
26.296	2	Incongruent	Incongruent	1291	1	Left	Down	y	y
41.305	0.2	CenterCue	CenterCue	n/a	n/a	n/a	n/a	n/a	n/a
42.555	2	Congruent	Congruent	1042	1	Right	Down	g	g
49.068	0.2	NoCue	NoCue	n/a	n/a	n/a	n/a	n/a	n/a
55.815	2	Congruent	Congruent	900	1	Right	Up	g	g
63.827	0.2	SpatialCue	SpatialCue	n/a	n/a	n/a	Up	n/a	n/a
66.31	2	Incongruent	Incongruent	1024	1	Left	Up	y	y
69.824	0.2	CenterCue	CenterCue	n/a	n/a	n/a	n/a	n/a	n/a
70.307	2	Incongruent	Incongruent	884	1	Right	Down	g	g
74.322	0.2	SpatialCue	SpatialCue	n/a	n/a	n/a	Up	n/a	n/a
75.055	2	Congruent	Congruent	842	1	Left	Up	y	y
85.066	0.2	SpatialCue	SpatialCue	n/a	n/a	n/a	Down	n/a	n/a
86.8	2	Congruent	Congruent	704	1	Right	Down	g	g
90.064	0.2	CenterCue	CenterCue	n/a	n/a	n/a	n/a	n/a	n/a
91.047	2	Incongruent	Incongruent	926	1	Right	Up	g	g
96.061	0.2	CenterCue	CenterCue	n/a	n/a	n/a	n/a	n/a	n/a
101.04	2	Congruent	Congruent	834	1	Left	Up	y	y
104.81	0.2	SpatialCue	SpatialCue	n/a	n/a	n/a	Down	n/a	n/a
116.8	2	Congruent	Congruent	932	1	Left	Down	y	y
122.31	0.2	SpatialCue	SpatialCue	n/a	n/a	n/a	Up	n/a	n/a
122.8	2	Incongruent	Incongruent	761	1	Right	Up	g	g
125.81	0.2	NoCue	NoCue	n/a	n/a	n/a	n/a	n/a	n/a
129.29	2	Congruent	Congruent	916	1	Left	Down	y	y
133.81	0.2	NoCue	NoCue	n/a	n/a	n/a	n/a	n/a	n/a
145.8	2	Incongruent	Incongruent	992	1	Left	Down	y	y
150.82	0.2	CenterCue	CenterCue	n/a	n/a	n/a	n/a	n/a	n/a
151.3	2	Congruent	Congruent	666	1	Right	Up	g	g
155.81	0.2	CenterCue	CenterCue	n/a	n/a	n/a	n/a	n/a	n/a
160.79	2	Incongruent	Incongruent	1030	1	Right	Down	g	g
164.81	0.2	CenterCue	CenterCue	n/a	n/a	n/a	n/a	n/a	n/a
166.54	2	Incongruent	Incongruent	946	1	Left	Up	y	y
169.56	0.2	SpatialCue	SpatialCue	n/a	n/a	n/a	Down	n/a	n/a
170.04	2	Incongruent	Incongruent	710	1	Right	Down	g	g
173.81	0.2	NoCue	NoCue	n/a	n/a	n/a	n/a	n/a	n/a
177.29	2	Incongruent	Incongruent	806	1	Right	Down	g	g
185.3	0.2	NoCue	NoCue	n/a	n/a	n/a	n/a	n/a	n/a
186.28	2	Incongruent	Incongruent	974	1	Left	Down	y	y
192.79	0.2	SpatialCue	SpatialCue	n/a	n/a	n/a	Up	n/a	n/a
194.03	2	Congruent	Congruent	764	1	Left	Up	y	y
197.54	0.2	NoCue	NoCue	n/a	n/a	n/a	n/a	n/a	n/a
198.03	2	Incongruent	Incongruent	788	1	Right	Up	g	g
213.03	0.2	NoCue	NoCue	n/a	n/a	n/a	n/a	n/a	n/a
215.53	2	Congruent	Congruent	860	1	Right	Down	g	g
218.8	0.2	NoCue	NoCue	n/a	n/a	n/a	n/a	n/a	n/a
219.53	2	Congruent	Congruent	776	1	Left	Up	y	y
225.05	0.2	SpatialCue	SpatialCue	n/a	n/a	n/a	Down	n/a	n/a
231.78	2	Congruent	Congruent	676	1	Right	Down	g	g
241.79	0.2	NoCue	NoCue	n/a	n/a	n/a	n/a	n/a	n/a
245.29	2	Congruent	Congruent	836	1	Right	Up	g	g
255.3	0.2	CenterCue	CueErr	n/a	n/a	n/a	n/a	n/a	n/a
256.53	2	Incongruent	TargetErr	1031	0	Left	Down	y	g
264.54	0.2	NoCue	NoCue	n/a	n/a	n/a	n/a	n/a	n/a
267.04	2	Congruent	Congruent	910	1	Left	Down	y	y
270.81	0.2	CenterCue	CenterCue	n/a	n/a	n/a	n/a	n/a	n/a
271.79	2	Congruent	Congruent	766	1	Left	Down	y	y
274.8	0.2	CenterCue	CenterCue	n/a	n/a	n/a	n/a	n/a	n/a
275.29	2	Congruent	Congruent	728	1	Right	Up	g	g
279.3	0.2	SpatialCue	SpatialCue	n/a	n/a	n/a	Up	n/a	n/a
286.03	2	Incongruent	Incongruent	809	1	Left	Up	y	y
289.55	0.2	SpatialCue	SpatialCue	n/a	n/a	n/a	Up	n/a	n/a
290.28	2	Congruent	Congruent	620	1	Right	Up	g	g
295.29	0.2	CenterCue	CenterCue	n/a	n/a	n/a	n/a	n/a	n/a
307.29	2	Congruent	Congruent	1037	1	Left	Down	y	y
313.8	0.2	NoCue	NoCue	n/a	n/a	n/a	n/a	n/a	n/a
315.53	2	Incongruent	Incongruent	1065	1	Right	Up	g	g
330.54	0.2	CenterCue	CenterCue	n/a	n/a	n/a	n/a	n/a	n/a
335.54	2	Incongruent	Incongruent	1012	1	Left	Up	y	y
338.81	0.2	NoCue	NoCue	n/a	n/a	n/a	n/a	n/a	n/a
339.29	2	Incongruent	Incongruent	972	1	Left	Up	y	y
344.8	0.2	SpatialCue	SpatialCue	n/a	n/a	n/a	Down	n/a	n/a
345.29	2	Incongruent	Incongruent	1065	1	Right	Down	g	g
