onset	duration	trial_type	trial_type_err	response_time	accuracy	target_dir	target_pos	correct_resp	resp
25.808	0.2	SpatialCue	SpatialCue	n/a	n/a	n/a	Down	n/a	n/a
26.291	2	Incongruent	Incongruent	910	1	Left	Down	y	y
41.3	0.2	CenterCue	CenterCue	n/a	n/a	n/a	n/a	n/a	n/a
42.549	2	Congruent	Congruent	941	1	Right	Down	g	g
49.063	0.2	NoCue	NoCue	n/a	n/a	n/a	n/a	n/a	n/a
55.809	2	Congruent	Congruent	833	1	Right	Up	g	g
63.822	0.2	SpatialCue	SpatialCue	n/a	n/a	n/a	Up	n/a	n/a
66.304	2	Incongruent	Incongruent	1754	1	Left	Up	y	y
69.819	0.2	CenterCue	CenterCue	n/a	n/a	n/a	n/a	n/a	n/a
70.302	2	Incongruent	Incongruent	948	1	Right	Down	g	g
74.317	0.2	SpatialCue	SpatialCue	n/a	n/a	n/a	Up	n/a	n/a
75.05	2	Congruent	Congruent	820	1	Left	Up	y	y
85.061	0.2	SpatialCue	SpatialCue	n/a	n/a	n/a	Down	n/a	n/a
86.81	2	Congruent	Congruent	998	1	Right	Down	g	g
90.075	0.2	CenterCue	CenterCue	n/a	n/a	n/a	n/a	n/a	n/a
91.058	2	Incongruent	Incongruent	1368	1	Right	Up	g	g
96.072	0.2	CenterCue	CenterCue	n/a	n/a	n/a	n/a	n/a	n/a
101.05	2	Congruent	Congruent	1418	1	Left	Up	y	y
104.82	0.2	SpatialCue	SpatialCue	n/a	n/a	n/a	Down	n/a	n/a
116.81	2	Congruent	Congruent	1324	1	Left	Down	y	y
122.33	0.2	SpatialCue	SpatialCue	n/a	n/a	n/a	Up	n/a	n/a
122.81	2	Incongruent	Incongruent	975	1	Right	Up	g	g
125.82	0.2	NoCue	NoCue	n/a	n/a	n/a	n/a	n/a	n/a
129.31	2	Congruent	Congruent	904	1	Left	Down	y	y
133.82	0.2	NoCue	NoCue	n/a	n/a	n/a	n/a	n/a	n/a
145.81	2	Incongruent	Incongruent	1194	1	Left	Down	y	y
150.83	0.2	CenterCue	CenterCue	n/a	n/a	n/a	n/a	n/a	n/a
151.31	2	Congruent	Congruent	885	1	Right	Up	g	g
155.82	0.2	CenterCue	CenterCue	n/a	n/a	n/a	n/a	n/a	n/a
160.81	2	Incongruent	Incongruent	1182	1	Right	Down	g	g
164.82	0.2	CenterCue	CenterCue	n/a	n/a	n/a	n/a	n/a	n/a
166.55	2	Incongruent	Incongruent	1191	1	Left	Up	y	y
169.57	0.2	SpatialCue	CueErr	n/a	n/a	n/a	Down	n/a	n/a
170.05	2	Incongruent	TargetErr	1301	0	Right	Down	g	y
173.82	0.2	NoCue	NoCue	n/a	n/a	n/a	n/a	n/a	n/a
177.3	2	Incongruent	Incongruent	1235	1	Right	Down	g	g
185.31	0.2	NoCue	NoCue	n/a	n/a	n/a	n/a	n/a	n/a
186.29	2	Incongruent	Incongruent	1457	1	Left	Down	y	y
192.81	0.2	SpatialCue	SpatialCue	n/a	n/a	n/a	Up	n/a	n/a
194.04	2	Congruent	Congruent	1153	1	Left	Up	y	y
197.55	0.2	NoCue	NoCue	n/a	n/a	n/a	n/a	n/a	n/a
198.04	2	Incongruent	Incongruent	1049	1	Right	Up	g	g
213.05	0.2	NoCue	NoCue	n/a	n/a	n/a	n/a	n/a	n/a
215.54	2	Congruent	Congruent	1055	1	Right	Down	g	g
218.81	0.2	NoCue	NoCue	n/a	n/a	n/a	n/a	n/a	n/a
219.54	2	Congruent	Congruent	918	1	Left	Up	y	y
225.06	0.2	SpatialCue	SpatialCue	n/a	n/a	n/a	Down	n/a	n/a
231.79	2	Congruent	Congruent	812	1	Right	Down	g	g
241.8	0.2	NoCue	NoCue	n/a	n/a	n/a	n/a	n/a	n/a
245.3	2	Congruent	Congruent	823	1	Right	Up	g	g
255.31	0.2	CenterCue	CenterCue	n/a	n/a	n/a	n/a	n/a	n/a
256.54	2	Incongruent	Incongruent	1100	1	Left	Down	y	y
264.55	0.2	NoCue	NoCue	n/a	n/a	n/a	n/a	n/a	n/a
267.04	2	Congruent	Congruent	983	1	Left	Down	y	y
270.8	0.2	CenterCue	CenterCue	n/a	n/a	n/a	n/a	n/a	n/a
271.78	2	Congruent	Congruent	895	1	Left	Down	y	y
274.8	0.2	CenterCue	CenterCue	n/a	n/a	n/a	n/a	n/a	n/a
275.28	2	Congruent	Congruent	876	1	Right	Up	g	g
279.3	0.2	SpatialCue	SpatialCue	n/a	n/a	n/a	Up	n/a	n/a
286.03	2	Incongruent	Incongruent	937	1	Left	Up	y	y
289.54	0.2	SpatialCue	SpatialCue	n/a	n/a	n/a	Up	n/a	n/a
290.27	2	Congruent	Congruent	764	1	Right	Up	g	g
295.29	0.2	CenterCue	CenterCue	n/a	n/a	n/a	n/a	n/a	n/a
307.28	2	Congruent	Congruent	939	1	Left	Down	y	y
313.8	0.2	NoCue	NoCue	n/a	n/a	n/a	n/a	n/a	n/a
315.53	2	Incongruent	Incongruent	1249	1	Right	Up	g	g
330.54	0.2	CenterCue	CenterCue	n/a	n/a	n/a	n/a	n/a	n/a
335.54	2	Incongruent	Incongruent	1475	1	Left	Up	y	y
338.8	0.2	NoCue	NoCue	n/a	n/a	n/a	n/a	n/a	n/a
339.28	2	Incongruent	Incongruent	1020	1	Left	Up	y	y
344.8	0.2	SpatialCue	SpatialCue	n/a	n/a	n/a	Down	n/a	n/a
345.28	2	Incongruent	Incongruent	1673	1	Right	Down	g	g
