onset	duration	trial_type	trial_type_err	response_time	accuracy	target_dir	target_pos	correct_resp	resp
25.817	0.2	NoCue	NoCue	n/a	n/a	n/a	n/a	n/a	n/a
26.3	2	Incongruent	Incongruent	863	1	Left	Down	y	y
41.309	0.2	SpatialCue	SpatialCue	n/a	n/a	n/a	Up	n/a	n/a
42.559	2	Congruent	Congruent	778	1	Left	Up	y	y
49.072	0.2	CenterCue	CenterCue	n/a	n/a	n/a	n/a	n/a	n/a
55.819	2	Incongruent	Incongruent	1034	1	Right	Down	g	g
63.831	0.2	NoCue	NoCue	n/a	n/a	n/a	n/a	n/a	n/a
66.314	2	Incongruent	Incongruent	872	1	Right	Down	g	g
69.828	0.2	SpatialCue	SpatialCue	n/a	n/a	n/a	Up	n/a	n/a
70.311	2	Incongruent	Incongruent	892	1	Right	Up	g	g
74.326	0.2	NoCue	NoCue	n/a	n/a	n/a	n/a	n/a	n/a
75.059	2	Congruent	Congruent	805	1	Left	Up	y	y
85.071	0.2	NoCue	NoCue	n/a	n/a	n/a	n/a	n/a	n/a
86.804	2	Congruent	Congruent	775	1	Right	Up	g	g
90.068	0.2	SpatialCue	SpatialCue	n/a	n/a	n/a	Down	n/a	n/a
91.051	2	Incongruent	Incongruent	1187	1	Left	Down	y	y
96.065	0.2	SpatialCue	SpatialCue	n/a	n/a	n/a	Up	n/a	n/a
101.05	2	Congruent	Congruent	775	1	Left	Up	y	y
104.81	0.2	NoCue	NoCue	n/a	n/a	n/a	n/a	n/a	n/a
116.81	2	Congruent	Congruent	915	1	Left	Up	y	y
122.32	0.2	NoCue	NoCue	n/a	n/a	n/a	n/a	n/a	n/a
122.8	2	Incongruent	Incongruent	790	1	Right	Up	g	g
125.82	0.2	CenterCue	CenterCue	n/a	n/a	n/a	n/a	n/a	n/a
129.3	2	Incongruent	Incongruent	765	1	Left	Up	y	y
133.81	0.2	CenterCue	CenterCue	n/a	n/a	n/a	n/a	n/a	n/a
145.81	2	Congruent	Congruent	765	1	Left	Down	y	y
150.82	0.2	SpatialCue	SpatialCue	n/a	n/a	n/a	Up	n/a	n/a
151.3	2	Congruent	Congruent	740	1	Right	Up	g	g
155.82	0.2	SpatialCue	SpatialCue	n/a	n/a	n/a	Down	n/a	n/a
160.8	2	Incongruent	Incongruent	949	1	Right	Down	g	g
164.81	0.2	SpatialCue	SpatialCue	n/a	n/a	n/a	Up	n/a	n/a
166.55	2	Incongruent	Incongruent	748	1	Right	Up	g	g
169.56	0.2	NoCue	NoCue	n/a	n/a	n/a	n/a	n/a	n/a
170.04	2	Incongruent	Incongruent	877	1	Left	Up	y	y
173.81	0.2	CenterCue	CenterCue	n/a	n/a	n/a	n/a	n/a	n/a
177.29	2	Congruent	Congruent	808	1	Left	Down	y	y
185.3	0.2	CenterCue	CenterCue	n/a	n/a	n/a	n/a	n/a	n/a
186.29	2	Congruent	Congruent	798	1	Right	Down	g	g
192.8	0.2	NoCue	NoCue	n/a	n/a	n/a	n/a	n/a	n/a
194.03	2	Congruent	Congruent	956	1	Right	Down	g	g
197.55	0.2	CenterCue	CenterCue	n/a	n/a	n/a	n/a	n/a	n/a
198.03	2	Congruent	Congruent	814	1	Right	Up	g	g
213.04	0.2	CenterCue	CenterCue	n/a	n/a	n/a	n/a	n/a	n/a
215.54	2	Incongruent	Incongruent	818	1	Left	Up	y	y
218.8	0.2	CenterCue	CenterCue	n/a	n/a	n/a	n/a	n/a	n/a
219.54	2	Incongruent	Incongruent	1062	1	Left	Down	y	y
225.05	0.2	NoCue	NoCue	n/a	n/a	n/a	n/a	n/a	n/a
231.78	2	Congruent	Congruent	760	1	Right	Down	g	g
241.79	0.2	CenterCue	CenterCue	n/a	n/a	n/a	n/a	n/a	n/a
245.29	2	Incongruent	Incongruent	729	1	Right	Down	g	g
255.3	0.2	SpatialCue	SpatialCue	n/a	n/a	n/a	Up	n/a	n/a
256.55	2	Incongruent	Incongruent	758	1	Left	Up	y	y
264.56	0.2	CenterCue	CenterCue	n/a	n/a	n/a	n/a	n/a	n/a
267.05	2	Incongruent	Incongruent	817	1	Right	Up	g	g
270.81	0.2	SpatialCue	SpatialCue	n/a	n/a	n/a	Down	n/a	n/a
271.79	2	Congruent	Congruent	809	1	Right	Down	g	g
274.81	0.2	SpatialCue	SpatialCue	n/a	n/a	n/a	Down	n/a	n/a
275.29	2	Congruent	Congruent	723	1	Left	Down	y	y
279.31	0.2	NoCue	NoCue	n/a	n/a	n/a	n/a	n/a	n/a
286.04	2	Incongruent	Incongruent	1103	1	Right	Up	g	g
289.55	0.2	NoCue	NoCue	n/a	n/a	n/a	n/a	n/a	n/a
290.28	2	Congruent	Congruent	720	1	Left	Down	y	y
295.3	0.2	SpatialCue	SpatialCue	n/a	n/a	n/a	Down	n/a	n/a
307.29	2	Congruent	Congruent	725	1	Right	Down	g	g
313.81	0.2	CenterCue	CenterCue	n/a	n/a	n/a	n/a	n/a	n/a
315.54	2	Congruent	Congruent	777	1	Left	Up	y	y
330.55	0.2	SpatialCue	SpatialCue	n/a	n/a	n/a	Down	n/a	n/a
335.54	2	Incongruent	Incongruent	918	1	Left	Down	y	y
338.81	0.2	CenterCue	CenterCue	n/a	n/a	n/a	n/a	n/a	n/a
339.29	2	Congruent	Congruent	750	1	Right	Up	g	g
344.81	0.2	NoCue	NoCue	n/a	n/a	n/a	n/a	n/a	n/a
345.29	2	Incongruent	Incongruent	832	1	Left	Down	y	y
