onset	duration	trial_type	trial_type_err	response_time	accuracy	target_dir	target_pos	correct_resp	resp
25.805	0.2	SpatialCue	SpatialCue	n/a	n/a	n/a	Down	n/a	n/a
26.288	2	Congruent	Congruent	591	1	Left	Down	y	y
41.297	0.2	CenterCue	CenterCue	n/a	n/a	n/a	n/a	n/a	n/a
42.546	2	Incongruent	Incongruent	773	1	Right	Up	g	g
49.059	0.2	NoCue	NoCue	n/a	n/a	n/a	n/a	n/a	n/a
55.806	2	Incongruent	Incongruent	741	1	Right	Up	g	g
63.819	0.2	SpatialCue	SpatialCue	n/a	n/a	n/a	Down	n/a	n/a
66.301	2	Congruent	Congruent	561	1	Right	Down	g	g
69.816	0.2	CenterCue	CenterCue	n/a	n/a	n/a	n/a	n/a	n/a
70.299	2	Congruent	Congruent	666	1	Left	Up	y	y
74.313	0.2	SpatialCue	SpatialCue	n/a	n/a	n/a	Down	n/a	n/a
75.046	2	Incongruent	Incongruent	640	1	Left	Down	y	y
85.058	0.2	SpatialCue	SpatialCue	n/a	n/a	n/a	Up	n/a	n/a
86.791	2	Incongruent	Incongruent	555	1	Right	Up	g	g
90.055	0.2	CenterCue	CueErr	n/a	n/a	n/a	n/a	n/a	n/a
91.038	2	Congruent	TargetErr	668	0	Left	Up	y	g
96.052	0.2	CenterCue	CenterCue	n/a	n/a	n/a	n/a	n/a	n/a
101.03	2	Incongruent	Incongruent	902	1	Right	Down	g	g
104.8	0.2	SpatialCue	SpatialCue	n/a	n/a	n/a	Up	n/a	n/a
116.79	2	Incongruent	Incongruent	850	1	Right	Up	g	g
122.31	0.2	SpatialCue	SpatialCue	n/a	n/a	n/a	Down	n/a	n/a
122.79	2	Congruent	Congruent	673	1	Right	Down	g	g
125.8	0.2	NoCue	NoCue	n/a	n/a	n/a	n/a	n/a	n/a
129.29	2	Incongruent	Incongruent	814	1	Left	Up	y	y
133.8	0.2	NoCue	NoCue	n/a	n/a	n/a	n/a	n/a	n/a
145.79	2	Congruent	Congruent	676	1	Right	Up	g	g
150.81	0.2	CenterCue	CenterCue	n/a	n/a	n/a	n/a	n/a	n/a
151.29	2	Incongruent	Incongruent	798	1	Left	Down	y	y
155.81	0.2	CenterCue	CenterCue	n/a	n/a	n/a	n/a	n/a	n/a
160.79	2	Congruent	Congruent	693	1	Right	Down	g	g
164.8	0.2	CenterCue	CenterCue	n/a	n/a	n/a	n/a	n/a	n/a
166.53	2	Congruent	Congruent	620	1	Right	Down	g	g
169.55	0.2	SpatialCue	SpatialCue	n/a	n/a	n/a	Up	n/a	n/a
170.03	2	Congruent	Congruent	541	1	Left	Up	y	y
173.8	0.2	NoCue	NoCue	n/a	n/a	n/a	n/a	n/a	n/a
177.28	2	Congruent	Congruent	835	1	Left	Down	y	y
185.29	0.2	NoCue	NoCue	n/a	n/a	n/a	n/a	n/a	n/a
186.27	2	Congruent	Congruent	685	1	Left	Up	y	y
192.79	0.2	SpatialCue	SpatialCue	n/a	n/a	n/a	Down	n/a	n/a
194.02	2	Incongruent	Incongruent	590	1	Left	Down	y	y
197.53	0.2	NoCue	NoCue	n/a	n/a	n/a	n/a	n/a	n/a
198.02	2	Congruent	Congruent	680	1	Right	Down	g	g
213.03	0.2	NoCue	NoCue	n/a	n/a	n/a	n/a	n/a	n/a
215.53	2	Incongruent	Incongruent	935	1	Left	Up	y	y
218.79	0.2	NoCue	NoCue	n/a	n/a	n/a	n/a	n/a	n/a
219.52	2	Incongruent	Incongruent	881	1	Right	Down	g	g
225.04	0.2	SpatialCue	SpatialCue	n/a	n/a	n/a	Up	n/a	n/a
231.77	2	Incongruent	Incongruent	593	1	Left	Up	y	y
241.78	0.2	NoCue	NoCue	n/a	n/a	n/a	n/a	n/a	n/a
245.28	2	Incongruent	Incongruent	1104	1	Right	Down	g	g
255.29	0.2	CenterCue	CenterCue	n/a	n/a	n/a	n/a	n/a	n/a
256.52	2	Congruent	Congruent	656	1	Left	Down	y	y
264.53	0.2	NoCue	NoCue	n/a	n/a	n/a	n/a	n/a	n/a
267.02	2	Incongruent	Incongruent	892	1	Left	Down	y	y
270.78	0.2	CenterCue	CenterCue	n/a	n/a	n/a	n/a	n/a	n/a
271.76	2	Incongruent	Incongruent	745	1	Right	Up	g	g
274.78	0.2	CenterCue	CenterCue	n/a	n/a	n/a	n/a	n/a	n/a
275.26	2	Incongruent	Incongruent	688	1	Left	Up	y	y
279.28	0.2	SpatialCue	SpatialCue	n/a	n/a	n/a	Up	n/a	n/a
286.01	2	Congruent	Congruent	626	1	Right	Up	g	g
289.52	0.2	SpatialCue	SpatialCue	n/a	n/a	n/a	Down	n/a	n/a
290.25	2	Incongruent	Incongruent	876	1	Right	Down	g	g
295.27	0.2	CenterCue	CenterCue	n/a	n/a	n/a	n/a	n/a	n/a
307.26	2	Incongruent	Incongruent	888	1	Left	Down	y	y
313.78	0.2	NoCue	NoCue	n/a	n/a	n/a	n/a	n/a	n/a
315.51	2	Congruent	Congruent	917	1	Right	Up	g	g
330.52	0.2	CenterCue	CenterCue	n/a	n/a	n/a	n/a	n/a	n/a
335.51	2	Congruent	Congruent	613	1	Right	Up	g	g
338.78	0.2	NoCue	NoCue	n/a	n/a	n/a	n/a	n/a	n/a
339.26	2	Congruent	Congruent	1238	1	Left	Down	y	y
344.78	0.2	SpatialCue	SpatialCue	n/a	n/a	n/a	Up	n/a	n/a
345.26	2	Congruent	Congruent	701	1	Left	Up	y	y
