onset	duration	trial_type	trial_type_err	response_time	accuracy	target_dir	target_pos	correct_resp	resp
25.807	0.2	CenterCue	CenterCue	n/a	n/a	n/a	n/a	n/a	n/a
26.291	2	Congruent	Congruent	992	1	Left	Down	y	y
41.3	0.2	NoCue	NoCue	n/a	n/a	n/a	n/a	n/a	n/a
42.549	2	Congruent	Congruent	1089	1	Left	Up	y	y
49.062	0.2	SpatialCue	SpatialCue	n/a	n/a	n/a	Down	n/a	n/a
55.809	2	Incongruent	Incongruent	1383	1	Right	Down	g	g
63.822	0.2	CenterCue	CenterCue	n/a	n/a	n/a	n/a	n/a	n/a
66.304	2	Congruent	Congruent	1041	1	Left	Up	y	y
69.819	0.2	NoCue	NoCue	n/a	n/a	n/a	n/a	n/a	n/a
70.302	2	Incongruent	Incongruent	1704	1	Right	Down	g	g
74.316	0.2	CenterCue	CenterCue	n/a	n/a	n/a	n/a	n/a	n/a
75.049	2	Incongruent	Incongruent	1207	1	Left	Down	y	y
85.061	0.2	CenterCue	CenterCue	n/a	n/a	n/a	n/a	n/a	n/a
86.794	2	Incongruent	Incongruent	1630	1	Left	Up	y	y
90.058	0.2	NoCue	NoCue	n/a	n/a	n/a	n/a	n/a	n/a
91.041	2	Incongruent	Incongruent	1711	1	Right	Up	g	g
96.055	0.2	NoCue	NoCue	n/a	n/a	n/a	n/a	n/a	n/a
101.04	2	Congruent	Congruent	1069	1	Left	Down	y	y
104.8	0.2	CenterCue	CenterCue	n/a	n/a	n/a	n/a	n/a	n/a
116.8	2	Incongruent	Incongruent	1707	1	Left	Down	y	y
122.31	0.2	CenterCue	CenterCue	n/a	n/a	n/a	n/a	n/a	n/a
122.79	2	Congruent	Congruent	1210	1	Right	Down	g	g
125.81	0.2	SpatialCue	SpatialCue	n/a	n/a	n/a	Up	n/a	n/a
129.29	2	Incongruent	Incongruent	1550	1	Left	Up	y	y
133.8	0.2	SpatialCue	CueErr	n/a	n/a	n/a	Down	n/a	n/a
145.8	2	Congruent	TargetErr	1085	0	Right	Down	g	y
150.81	0.2	NoCue	NoCue	n/a	n/a	n/a	n/a	n/a	n/a
151.29	2	Congruent	Congruent	1473	1	Left	Down	y	y
155.81	0.2	NoCue	NoCue	n/a	n/a	n/a	n/a	n/a	n/a
160.79	2	Incongruent	Incongruent	1802	1	Left	Up	y	y
164.8	0.2	NoCue	NoCue	n/a	n/a	n/a	n/a	n/a	n/a
166.54	2	Incongruent	Incongruent	1483	1	Right	Down	g	g
169.55	0.2	CenterCue	CenterCue	n/a	n/a	n/a	n/a	n/a	n/a
170.03	2	Congruent	Congruent	1162	1	Right	Up	g	g
173.8	0.2	SpatialCue	SpatialCue	n/a	n/a	n/a	Up	n/a	n/a
177.28	2	Congruent	Congruent	772	1	Right	Up	g	g
185.29	0.2	SpatialCue	SpatialCue	n/a	n/a	n/a	Down	n/a	n/a
186.28	2	Congruent	Congruent	856	1	Left	Down	y	y
192.79	0.2	CenterCue	CenterCue	n/a	n/a	n/a	n/a	n/a	n/a
194.02	2	Incongruent	Incongruent	1330	1	Right	Up	g	g
197.54	0.2	SpatialCue	SpatialCue	n/a	n/a	n/a	Down	n/a	n/a
198.02	2	Congruent	Congruent	851	1	Left	Down	y	y
213.03	0.2	SpatialCue	SpatialCue	n/a	n/a	n/a	Up	n/a	n/a
215.53	2	Incongruent	Incongruent	1298	1	Left	Up	y	y
218.79	0.2	SpatialCue	SpatialCue	n/a	n/a	n/a	Down	n/a	n/a
219.53	2	Incongruent	Incongruent	1343	1	Right	Down	g	g
225.04	0.2	CenterCue	CenterCue	n/a	n/a	n/a	n/a	n/a	n/a
231.79	2	Incongruent	Incongruent	1043	1	Right	Up	g	g
241.8	0.2	SpatialCue	SpatialCue	n/a	n/a	n/a	Down	n/a	n/a
245.3	2	Incongruent	Incongruent	1485	1	Left	Down	y	y
255.31	0.2	NoCue	NoCue	n/a	n/a	n/a	n/a	n/a	n/a
256.54	2	Incongruent	Incongruent	1767	1	Left	Up	y	y
264.55	0.2	SpatialCue	SpatialCue	n/a	n/a	n/a	Up	n/a	n/a
267.04	2	Incongruent	Incongruent	1665	1	Right	Up	g	g
270.8	0.2	NoCue	NoCue	n/a	n/a	n/a	n/a	n/a	n/a
271.78	2	Congruent	Congruent	1288	1	Right	Down	g	g
274.8	0.2	NoCue	NoCue	n/a	n/a	n/a	n/a	n/a	n/a
275.28	2	Congruent	Congruent	1822	1	Right	Up	g	g
279.3	0.2	CenterCue	CenterCue	n/a	n/a	n/a	n/a	n/a	n/a
286.03	2	Congruent	Congruent	1087	1	Left	Up	y	y
289.54	0.2	CenterCue	CenterCue	n/a	n/a	n/a	n/a	n/a	n/a
290.27	2	Incongruent	Incongruent	1261	1	Right	Down	g	g
295.29	0.2	NoCue	NoCue	n/a	n/a	n/a	n/a	n/a	n/a
307.28	2	Congruent	Congruent	1008	1	Right	Up	g	g
313.8	0.2	SpatialCue	SpatialCue	n/a	n/a	n/a	Up	n/a	n/a
315.53	2	Congruent	Congruent	1030	1	Right	Up	g	g
330.54	0.2	NoCue	NoCue	n/a	n/a	n/a	n/a	n/a	n/a
335.54	2	Incongruent	Incongruent	1452	1	Left	Down	y	y
338.8	0.2	SpatialCue	SpatialCue	n/a	n/a	n/a	Up	n/a	n/a
339.28	2	Congruent	Congruent	932	1	Left	Up	y	y
344.8	0.2	CenterCue	CenterCue	n/a	n/a	n/a	n/a	n/a	n/a
345.28	2	Congruent	Congruent	1037	1	Right	Down	g	g
