onset	duration	trial_type	trial_type_err	response_time	accuracy	target_dir	target_pos	correct_resp	resp
25.805	0.2	SpatialCue	SpatialCue	n/a	n/a	n/a	Down	n/a	n/a
26.288	2	Congruent	Congruent	708	1	Left	Down	y	y
41.297	0.2	CenterCue	CenterCue	n/a	n/a	n/a	n/a	n/a	n/a
42.546	2	Incongruent	Incongruent	862	1	Right	Up	g	g
49.06	0.2	NoCue	NoCue	n/a	n/a	n/a	n/a	n/a	n/a
55.791	2	Incongruent	Incongruent	900	1	Right	Up	g	g
63.802	0.2	SpatialCue	SpatialCue	n/a	n/a	n/a	Down	n/a	n/a
66.301	2	Congruent	Congruent	699	1	Right	Down	g	g
69.816	0.2	CenterCue	CenterCue	n/a	n/a	n/a	n/a	n/a	n/a
70.299	2	Congruent	Congruent	972	1	Left	Up	y	y
74.314	0.2	SpatialCue	SpatialCue	n/a	n/a	n/a	Down	n/a	n/a
75.047	2	Incongruent	Incongruent	1091	1	Left	Down	y	y
85.059	0.2	SpatialCue	SpatialCue	n/a	n/a	n/a	Up	n/a	n/a
86.792	2	Incongruent	Incongruent	678	1	Right	Up	g	g
90.056	0.2	CenterCue	CenterCue	n/a	n/a	n/a	n/a	n/a	n/a
91.039	2	Congruent	Congruent	789	1	Left	Up	y	y
96.053	0.2	CenterCue	CenterCue	n/a	n/a	n/a	n/a	n/a	n/a
101.03	2	Incongruent	Incongruent	877	1	Right	Down	g	g
104.8	0.2	SpatialCue	SpatialCue	n/a	n/a	n/a	Up	n/a	n/a
116.79	2	Incongruent	Incongruent	822	1	Right	Up	g	g
122.31	0.2	SpatialCue	SpatialCue	n/a	n/a	n/a	Down	n/a	n/a
122.79	2	Congruent	Congruent	713	1	Right	Down	g	g
125.81	0.2	NoCue	NoCue	n/a	n/a	n/a	n/a	n/a	n/a
129.29	2	Incongruent	Incongruent	869	1	Left	Up	y	y
133.8	0.2	NoCue	NoCue	n/a	n/a	n/a	n/a	n/a	n/a
145.79	2	Congruent	Congruent	763	1	Right	Up	g	g
150.81	0.2	CenterCue	CenterCue	n/a	n/a	n/a	n/a	n/a	n/a
151.29	2	Incongruent	Incongruent	925	1	Left	Down	y	y
155.81	0.2	CenterCue	CenterCue	n/a	n/a	n/a	n/a	n/a	n/a
160.79	2	Congruent	Congruent	996	1	Right	Down	g	g
164.8	0.2	CenterCue	CenterCue	n/a	n/a	n/a	n/a	n/a	n/a
166.53	2	Congruent	Congruent	772	1	Right	Down	g	g
169.55	0.2	SpatialCue	SpatialCue	n/a	n/a	n/a	Up	n/a	n/a
170.03	2	Congruent	Congruent	732	1	Left	Up	y	y
173.8	0.2	NoCue	NoCue	n/a	n/a	n/a	n/a	n/a	n/a
177.28	2	Congruent	Congruent	786	1	Left	Down	y	y
185.29	0.2	NoCue	NoCue	n/a	n/a	n/a	n/a	n/a	n/a
186.28	2	Congruent	Congruent	781	1	Left	Up	y	y
192.79	0.2	SpatialCue	SpatialCue	n/a	n/a	n/a	Down	n/a	n/a
194.02	2	Incongruent	Incongruent	932	1	Left	Down	y	y
197.54	0.2	NoCue	NoCue	n/a	n/a	n/a	n/a	n/a	n/a
198.02	2	Congruent	Congruent	672	1	Right	Down	g	g
213.03	0.2	NoCue	NoCue	n/a	n/a	n/a	n/a	n/a	n/a
215.53	2	Incongruent	Incongruent	1088	1	Left	Up	y	y
218.79	0.2	NoCue	NoCue	n/a	n/a	n/a	n/a	n/a	n/a
219.53	2	Incongruent	Incongruent	967	1	Right	Down	g	g
225.04	0.2	SpatialCue	SpatialCue	n/a	n/a	n/a	Up	n/a	n/a
231.77	2	Incongruent	Incongruent	959	1	Left	Up	y	y
241.78	0.2	NoCue	NoCue	n/a	n/a	n/a	n/a	n/a	n/a
245.28	2	Incongruent	Incongruent	902	1	Right	Down	g	g
255.29	0.2	CenterCue	CenterCue	n/a	n/a	n/a	n/a	n/a	n/a
256.52	2	Congruent	Congruent	759	1	Left	Down	y	y
264.54	0.2	NoCue	NoCue	n/a	n/a	n/a	n/a	n/a	n/a
267.02	2	Incongruent	Incongruent	1181	1	Left	Down	y	y
270.78	0.2	CenterCue	CenterCue	n/a	n/a	n/a	n/a	n/a	n/a
271.77	2	Incongruent	Incongruent	706	1	Right	Up	g	g
274.78	0.2	CenterCue	CenterCue	n/a	n/a	n/a	n/a	n/a	n/a
275.26	2	Incongruent	Incongruent	1046	1	Left	Up	y	y
279.28	0.2	SpatialCue	SpatialCue	n/a	n/a	n/a	Up	n/a	n/a
286.01	2	Congruent	Congruent	627	1	Right	Up	g	g
289.52	0.2	SpatialCue	SpatialCue	n/a	n/a	n/a	Down	n/a	n/a
290.26	2	Incongruent	Incongruent	749	1	Right	Down	g	g
295.27	0.2	CenterCue	CenterCue	n/a	n/a	n/a	n/a	n/a	n/a
307.26	2	Incongruent	Incongruent	965	1	Left	Down	y	y
313.78	0.2	NoCue	NoCue	n/a	n/a	n/a	n/a	n/a	n/a
315.51	2	Congruent	Congruent	667	1	Right	Up	g	g
330.52	0.2	CenterCue	CenterCue	n/a	n/a	n/a	n/a	n/a	n/a
335.52	2	Congruent	Congruent	612	1	Right	Up	g	g
338.78	0.2	NoCue	NoCue	n/a	n/a	n/a	n/a	n/a	n/a
339.27	2	Congruent	Congruent	750	1	Left	Down	y	y
344.78	0.2	SpatialCue	SpatialCue	n/a	n/a	n/a	Up	n/a	n/a
345.26	2	Congruent	Congruent	617	1	Left	Up	y	y
