onset	duration	trial_type	trial_type_err	response_time	accuracy	target_dir	target_pos	correct_resp	resp
25.803	0.2	SpatialCue	SpatialCue	n/a	n/a	n/a	Down	n/a	n/a
26.286	2	Congruent	Congruent	1609	1	Left	Down	y	y
41.296	0.2	CenterCue	CenterCue	n/a	n/a	n/a	n/a	n/a	n/a
42.545	2	Incongruent	Incongruent	678	1	Right	Up	g	g
49.058	0.2	NoCue	NoCue	n/a	n/a	n/a	n/a	n/a	n/a
55.805	2	Incongruent	Incongruent	645	1	Right	Up	g	g
63.818	0.2	SpatialCue	SpatialCue	n/a	n/a	n/a	Down	n/a	n/a
66.3	2	Congruent	Congruent	676	1	Right	Down	g	g
69.815	0.2	CenterCue	CenterCue	n/a	n/a	n/a	n/a	n/a	n/a
70.298	2	Congruent	Congruent	597	1	Left	Up	y	y
74.312	0.2	SpatialCue	SpatialCue	n/a	n/a	n/a	Down	n/a	n/a
75.045	2	Incongruent	Incongruent	814	1	Left	Down	y	y
85.057	0.2	SpatialCue	SpatialCue	n/a	n/a	n/a	Up	n/a	n/a
86.79	2	Incongruent	Incongruent	714	1	Right	Up	g	g
90.055	0.2	CenterCue	CenterCue	n/a	n/a	n/a	n/a	n/a	n/a
91.037	2	Congruent	Congruent	816	1	Left	Up	y	y
96.052	0.2	CenterCue	CenterCue	n/a	n/a	n/a	n/a	n/a	n/a
101.03	2	Incongruent	Incongruent	706	1	Right	Down	g	g
104.8	0.2	SpatialCue	SpatialCue	n/a	n/a	n/a	Up	n/a	n/a
116.79	2	Incongruent	Incongruent	754	1	Right	Up	g	g
122.31	0.2	SpatialCue	SpatialCue	n/a	n/a	n/a	Down	n/a	n/a
122.79	2	Congruent	Congruent	686	1	Right	Down	g	g
125.8	0.2	NoCue	NoCue	n/a	n/a	n/a	n/a	n/a	n/a
129.28	2	Incongruent	Incongruent	1016	1	Left	Up	y	y
133.8	0.2	NoCue	NoCue	n/a	n/a	n/a	n/a	n/a	n/a
145.79	2	Congruent	Congruent	702	1	Right	Up	g	g
150.81	0.2	CenterCue	CenterCue	n/a	n/a	n/a	n/a	n/a	n/a
151.29	2	Incongruent	Incongruent	925	1	Left	Down	y	y
155.81	0.2	CenterCue	CenterCue	n/a	n/a	n/a	n/a	n/a	n/a
160.79	2	Congruent	Congruent	722	1	Right	Down	g	g
164.8	0.2	CenterCue	CenterCue	n/a	n/a	n/a	n/a	n/a	n/a
166.53	2	Congruent	Congruent	693	1	Right	Down	g	g
169.55	0.2	SpatialCue	SpatialCue	n/a	n/a	n/a	Up	n/a	n/a
170.03	2	Congruent	Congruent	943	1	Left	Up	y	y
173.8	0.2	NoCue	CueErr	n/a	n/a	n/a	n/a	n/a	n/a
177.28	2	Congruent	TargetErr	829	0	Left	Down	y	g
185.29	0.2	NoCue	NoCue	n/a	n/a	n/a	n/a	n/a	n/a
186.27	2	Congruent	Congruent	1085	1	Left	Up	y	y
192.79	0.2	SpatialCue	SpatialCue	n/a	n/a	n/a	Down	n/a	n/a
194.02	2	Incongruent	Incongruent	907	1	Left	Down	y	y
197.53	0.2	NoCue	NoCue	n/a	n/a	n/a	n/a	n/a	n/a
198.02	2	Congruent	Congruent	885	1	Right	Down	g	g
213.03	0.2	NoCue	NoCue	n/a	n/a	n/a	n/a	n/a	n/a
215.53	2	Incongruent	Incongruent	1050	1	Left	Up	y	y
218.79	0.2	NoCue	NoCue	n/a	n/a	n/a	n/a	n/a	n/a
219.52	2	Incongruent	Incongruent	963	1	Right	Down	g	g
225.04	0.2	SpatialCue	SpatialCue	n/a	n/a	n/a	Up	n/a	n/a
231.77	2	Incongruent	Incongruent	938	1	Left	Up	y	y
241.78	0.2	NoCue	NoCue	n/a	n/a	n/a	n/a	n/a	n/a
245.28	2	Incongruent	Incongruent	1289	1	Right	Down	g	g
255.29	0.2	CenterCue	CenterCue	n/a	n/a	n/a	n/a	n/a	n/a
256.52	2	Congruent	Congruent	931	1	Left	Down	y	y
264.53	0.2	NoCue	NoCue	n/a	n/a	n/a	n/a	n/a	n/a
267.02	2	Incongruent	Incongruent	1069	1	Left	Down	y	y
270.78	0.2	CenterCue	CenterCue	n/a	n/a	n/a	n/a	n/a	n/a
271.76	2	Incongruent	Incongruent	915	1	Right	Up	g	g
274.78	0.2	CenterCue	CenterCue	n/a	n/a	n/a	n/a	n/a	n/a
275.26	2	Incongruent	Incongruent	867	1	Left	Up	y	y
279.28	0.2	SpatialCue	SpatialCue	n/a	n/a	n/a	Up	n/a	n/a
286.02	2	Congruent	Congruent	751	1	Right	Up	g	g
289.54	0.2	SpatialCue	SpatialCue	n/a	n/a	n/a	Down	n/a	n/a
290.27	2	Incongruent	Incongruent	809	1	Right	Down	g	g
295.29	0.2	CenterCue	CenterCue	n/a	n/a	n/a	n/a	n/a	n/a
307.28	2	Incongruent	Incongruent	1128	1	Left	Down	y	y
313.79	0.2	NoCue	NoCue	n/a	n/a	n/a	n/a	n/a	n/a
315.52	2	Congruent	Congruent	790	1	Right	Up	g	g
330.53	0.2	CenterCue	CenterCue	n/a	n/a	n/a	n/a	n/a	n/a
335.53	2	Congruent	Congruent	833	1	Right	Up	g	g
338.8	0.2	NoCue	NoCue	n/a	n/a	n/a	n/a	n/a	n/a
339.28	2	Congruent	Congruent	875	1	Left	Down	y	y
344.79	0.2	SpatialCue	SpatialCue	n/a	n/a	n/a	Up	n/a	n/a
345.28	2	Congruent	Congruent	862	1	Left	Up	y	y
