onset	duration	trial_type	trial_type_err	response_time	accuracy	target_dir	target_pos	correct_resp	resp
25.81	0.2	SpatialCue	SpatialCue	n/a	n/a	n/a	Down	n/a	n/a
26.293	2	Incongruent	Incongruent	711	1	Left	Down	y	y
41.302	0.2	CenterCue	CenterCue	n/a	n/a	n/a	n/a	n/a	n/a
42.552	2	Congruent	Congruent	632	1	Right	Down	g	g
49.065	0.2	NoCue	NoCue	n/a	n/a	n/a	n/a	n/a	n/a
55.812	2	Congruent	Congruent	641	1	Right	Up	g	g
63.825	0.2	SpatialCue	SpatialCue	n/a	n/a	n/a	Up	n/a	n/a
66.307	2	Incongruent	Incongruent	646	1	Left	Up	y	y
69.821	0.2	CenterCue	CenterCue	n/a	n/a	n/a	n/a	n/a	n/a
70.305	2	Incongruent	Incongruent	788	1	Right	Down	g	g
74.319	0.2	SpatialCue	SpatialCue	n/a	n/a	n/a	Up	n/a	n/a
75.052	2	Congruent	Congruent	699	1	Left	Up	y	y
85.064	0.2	SpatialCue	SpatialCue	n/a	n/a	n/a	Down	n/a	n/a
86.797	2	Congruent	Congruent	718	1	Right	Down	g	g
90.061	0.2	CenterCue	CenterCue	n/a	n/a	n/a	n/a	n/a	n/a
91.044	2	Incongruent	Incongruent	1065	1	Right	Up	g	g
96.058	0.2	CenterCue	CenterCue	n/a	n/a	n/a	n/a	n/a	n/a
101.04	2	Congruent	Congruent	646	1	Left	Up	y	y
104.8	0.2	SpatialCue	SpatialCue	n/a	n/a	n/a	Down	n/a	n/a
116.8	2	Congruent	Congruent	639	1	Left	Down	y	y
122.31	0.2	SpatialCue	SpatialCue	n/a	n/a	n/a	Up	n/a	n/a
122.8	2	Incongruent	Incongruent	771	1	Right	Up	g	g
125.81	0.2	NoCue	NoCue	n/a	n/a	n/a	n/a	n/a	n/a
129.29	2	Congruent	Congruent	661	1	Left	Down	y	y
133.81	0.2	NoCue	NoCue	n/a	n/a	n/a	n/a	n/a	n/a
145.8	2	Incongruent	Incongruent	872	1	Left	Down	y	y
150.81	0.2	CenterCue	CenterCue	n/a	n/a	n/a	n/a	n/a	n/a
151.3	2	Congruent	Congruent	625	1	Right	Up	g	g
155.81	0.2	CenterCue	CenterCue	n/a	n/a	n/a	n/a	n/a	n/a
160.79	2	Incongruent	Incongruent	785	1	Right	Down	g	g
164.81	0.2	CenterCue	CenterCue	n/a	n/a	n/a	n/a	n/a	n/a
166.54	2	Incongruent	Incongruent	1397	1	Left	Up	y	y
169.56	0.2	SpatialCue	SpatialCue	n/a	n/a	n/a	Down	n/a	n/a
170.04	2	Incongruent	Incongruent	665	1	Right	Down	g	g
173.8	0.2	NoCue	NoCue	n/a	n/a	n/a	n/a	n/a	n/a
177.28	2	Incongruent	Incongruent	894	1	Right	Down	g	g
185.3	0.2	NoCue	NoCue	n/a	n/a	n/a	n/a	n/a	n/a
186.28	2	Incongruent	Incongruent	920	1	Left	Down	y	y
192.79	0.2	SpatialCue	SpatialCue	n/a	n/a	n/a	Up	n/a	n/a
194.03	2	Congruent	Congruent	562	1	Left	Up	y	y
197.54	0.2	NoCue	NoCue	n/a	n/a	n/a	n/a	n/a	n/a
198.02	2	Incongruent	Incongruent	913	1	Right	Up	g	g
213.03	0.2	NoCue	NoCue	n/a	n/a	n/a	n/a	n/a	n/a
215.53	2	Congruent	Congruent	850	1	Right	Down	g	g
218.8	0.2	NoCue	NoCue	n/a	n/a	n/a	n/a	n/a	n/a
219.53	2	Congruent	Congruent	782	1	Left	Up	y	y
225.04	0.2	SpatialCue	SpatialCue	n/a	n/a	n/a	Down	n/a	n/a
231.79	2	Congruent	Congruent	647	1	Right	Down	g	g
241.8	0.2	NoCue	NoCue	n/a	n/a	n/a	n/a	n/a	n/a
245.3	2	Congruent	Congruent	715	1	Right	Up	g	g
255.31	0.2	CenterCue	CenterCue	n/a	n/a	n/a	n/a	n/a	n/a
256.55	2	Incongruent	Incongruent	752	1	Left	Down	y	y
264.56	0.2	NoCue	NoCue	n/a	n/a	n/a	n/a	n/a	n/a
267.04	2	Congruent	Congruent	866	1	Left	Down	y	y
270.8	0.2	CenterCue	CenterCue	n/a	n/a	n/a	n/a	n/a	n/a
271.79	2	Congruent	Congruent	635	1	Left	Down	y	y
274.8	0.2	CenterCue	CenterCue	n/a	n/a	n/a	n/a	n/a	n/a
275.29	2	Congruent	Congruent	652	1	Right	Up	g	g
279.3	0.2	SpatialCue	SpatialCue	n/a	n/a	n/a	Up	n/a	n/a
286.03	2	Incongruent	Incongruent	798	1	Left	Up	y	y
289.55	0.2	SpatialCue	SpatialCue	n/a	n/a	n/a	Up	n/a	n/a
290.28	2	Congruent	Congruent	561	1	Right	Up	g	g
295.29	0.2	CenterCue	CenterCue	n/a	n/a	n/a	n/a	n/a	n/a
307.29	2	Congruent	Congruent	643	1	Left	Down	y	y
313.8	0.2	NoCue	NoCue	n/a	n/a	n/a	n/a	n/a	n/a
315.53	2	Incongruent	Incongruent	765	1	Right	Up	g	g
330.54	0.2	CenterCue	CenterCue	n/a	n/a	n/a	n/a	n/a	n/a
335.54	2	Incongruent	Incongruent	774	1	Left	Up	y	y
338.8	0.2	NoCue	NoCue	n/a	n/a	n/a	n/a	n/a	n/a
339.29	2	Incongruent	Incongruent	766	1	Left	Up	y	y
344.8	0.2	SpatialCue	SpatialCue	n/a	n/a	n/a	Down	n/a	n/a
345.28	2	Incongruent	Incongruent	951	1	Right	Down	g	g
