onset	duration	trial_type	trial_type_err	response_time	accuracy	target_dir	target_pos	correct_resp	resp
25.809	0.2	SpatialCue	SpatialCue	n/a	n/a	n/a	Down	n/a	n/a
26.292	2	Incongruent	Incongruent	1052	1	Left	Down	y	y
41.301	0.2	CenterCue	CenterCue	n/a	n/a	n/a	n/a	n/a	n/a
42.55	2	Congruent	Congruent	978	1	Right	Down	g	g
49.064	0.2	NoCue	NoCue	n/a	n/a	n/a	n/a	n/a	n/a
55.81	2	Congruent	Congruent	908	1	Right	Up	g	g
63.823	0.2	SpatialCue	SpatialCue	n/a	n/a	n/a	Up	n/a	n/a
66.305	2	Incongruent	Incongruent	714	1	Left	Up	y	y
69.82	0.2	CenterCue	CenterCue	n/a	n/a	n/a	n/a	n/a	n/a
70.303	2	Incongruent	Incongruent	841	1	Right	Down	g	g
74.318	0.2	SpatialCue	SpatialCue	n/a	n/a	n/a	Up	n/a	n/a
75.051	2	Congruent	Congruent	731	1	Left	Up	y	y
85.062	0.2	SpatialCue	SpatialCue	n/a	n/a	n/a	Down	n/a	n/a
86.811	2	Congruent	Congruent	756	1	Right	Down	g	g
90.076	0.2	CenterCue	CenterCue	n/a	n/a	n/a	n/a	n/a	n/a
91.059	2	Incongruent	Incongruent	910	1	Right	Up	g	g
96.073	0.2	CenterCue	CenterCue	n/a	n/a	n/a	n/a	n/a	n/a
101.05	2	Congruent	Congruent	889	1	Left	Up	y	y
104.82	0.2	SpatialCue	SpatialCue	n/a	n/a	n/a	Down	n/a	n/a
116.81	2	Congruent	Congruent	915	1	Left	Down	y	y
122.33	0.2	SpatialCue	SpatialCue	n/a	n/a	n/a	Up	n/a	n/a
122.81	2	Incongruent	Incongruent	1524	1	Right	Up	g	g
125.83	0.2	NoCue	NoCue	n/a	n/a	n/a	n/a	n/a	n/a
129.31	2	Congruent	Congruent	1163	1	Left	Down	y	y
133.82	0.2	NoCue	NoCue	n/a	n/a	n/a	n/a	n/a	n/a
145.81	2	Incongruent	Incongruent	1615	1	Left	Down	y	y
150.83	0.2	CenterCue	CenterCue	n/a	n/a	n/a	n/a	n/a	n/a
151.31	2	Congruent	Congruent	1221	1	Right	Up	g	g
155.83	0.2	CenterCue	CenterCue	n/a	n/a	n/a	n/a	n/a	n/a
160.81	2	Incongruent	Incongruent	1210	1	Right	Down	g	g
164.82	0.2	CenterCue	CenterCue	n/a	n/a	n/a	n/a	n/a	n/a
166.55	2	Incongruent	Incongruent	983	1	Left	Up	y	y
169.57	0.2	SpatialCue	SpatialCue	n/a	n/a	n/a	Down	n/a	n/a
170.05	2	Incongruent	Incongruent	934	1	Right	Down	g	g
173.82	0.2	NoCue	NoCue	n/a	n/a	n/a	n/a	n/a	n/a
177.3	2	Incongruent	Incongruent	1176	1	Right	Down	g	g
185.31	0.2	NoCue	NoCue	n/a	n/a	n/a	n/a	n/a	n/a
186.29	2	Incongruent	Incongruent	979	1	Left	Down	y	y
192.81	0.2	SpatialCue	SpatialCue	n/a	n/a	n/a	Up	n/a	n/a
194.04	2	Congruent	Congruent	905	1	Left	Up	y	y
197.56	0.2	NoCue	NoCue	n/a	n/a	n/a	n/a	n/a	n/a
198.04	2	Incongruent	Incongruent	1058	1	Right	Up	g	g
213.05	0.2	NoCue	NoCue	n/a	n/a	n/a	n/a	n/a	n/a
215.55	2	Congruent	Congruent	1282	1	Right	Down	g	g
218.81	0.2	NoCue	NoCue	n/a	n/a	n/a	n/a	n/a	n/a
219.54	2	Congruent	Congruent	990	1	Left	Up	y	y
225.06	0.2	SpatialCue	SpatialCue	n/a	n/a	n/a	Down	n/a	n/a
231.79	2	Congruent	Congruent	835	1	Right	Down	g	g
241.8	0.2	NoCue	NoCue	n/a	n/a	n/a	n/a	n/a	n/a
245.3	2	Congruent	Congruent	1455	1	Right	Up	g	g
255.31	0.2	CenterCue	CenterCue	n/a	n/a	n/a	n/a	n/a	n/a
256.54	2	Incongruent	Incongruent	1355	1	Left	Down	y	y
264.56	0.2	NoCue	NoCue	n/a	n/a	n/a	n/a	n/a	n/a
267.04	2	Congruent	Congruent	1208	1	Left	Down	y	y
270.8	0.2	CenterCue	CenterCue	n/a	n/a	n/a	n/a	n/a	n/a
271.79	2	Congruent	Congruent	953	1	Left	Down	y	y
274.8	0.2	CenterCue	CenterCue	n/a	n/a	n/a	n/a	n/a	n/a
275.28	2	Congruent	Congruent	815	1	Right	Up	g	g
279.3	0.2	SpatialCue	SpatialCue	n/a	n/a	n/a	Up	n/a	n/a
286.03	2	Incongruent	Incongruent	755	1	Left	Up	y	y
289.54	0.2	SpatialCue	SpatialCue	n/a	n/a	n/a	Up	n/a	n/a
290.27	2	Congruent	Congruent	929	1	Right	Up	g	g
295.29	0.2	CenterCue	CenterCue	n/a	n/a	n/a	n/a	n/a	n/a
307.28	2	Congruent	Congruent	1092	1	Left	Down	y	y
313.8	0.2	NoCue	NoCue	n/a	n/a	n/a	n/a	n/a	n/a
315.53	2	Incongruent	Incongruent	897	1	Right	Up	g	g
330.54	0.2	CenterCue	CenterCue	n/a	n/a	n/a	n/a	n/a	n/a
335.54	2	Incongruent	Incongruent	900	1	Left	Up	y	y
338.8	0.2	NoCue	NoCue	n/a	n/a	n/a	n/a	n/a	n/a
339.28	2	Incongruent	Incongruent	1026	1	Left	Up	y	y
344.8	0.2	SpatialCue	SpatialCue	n/a	n/a	n/a	Down	n/a	n/a
345.28	2	Incongruent	Incongruent	801	1	Right	Down	g	g
