onset	duration	trial_type	trial_type_err	response_time	accuracy	target_dir	target_pos	correct_resp	resp
25.812	0.2	SpatialCue	SpatialCue	n/a	n/a	n/a	Down	n/a	n/a
26.295	2	Congruent	Congruent	750	1	Left	Down	y	y
41.305	0.2	CenterCue	CenterCue	n/a	n/a	n/a	n/a	n/a	n/a
42.554	2	Incongruent	Incongruent	726	1	Right	Up	g	g
49.067	0.2	NoCue	NoCue	n/a	n/a	n/a	n/a	n/a	n/a
55.814	2	Incongruent	Incongruent	672	1	Right	Up	g	g
63.827	0.2	SpatialCue	SpatialCue	n/a	n/a	n/a	Down	n/a	n/a
66.309	2	Congruent	Congruent	694	1	Right	Down	g	g
69.824	0.2	CenterCue	CenterCue	n/a	n/a	n/a	n/a	n/a	n/a
70.307	2	Congruent	Congruent	611	1	Left	Up	y	y
74.321	0.2	SpatialCue	SpatialCue	n/a	n/a	n/a	Down	n/a	n/a
75.054	2	Incongruent	Incongruent	1192	1	Left	Down	y	y
85.066	0.2	SpatialCue	SpatialCue	n/a	n/a	n/a	Up	n/a	n/a
86.815	2	Incongruent	Incongruent	840	1	Right	Up	g	g
90.08	0.2	CenterCue	CenterCue	n/a	n/a	n/a	n/a	n/a	n/a
91.063	2	Congruent	Congruent	693	1	Left	Up	y	y
96.077	0.2	CenterCue	CenterCue	n/a	n/a	n/a	n/a	n/a	n/a
101.06	2	Incongruent	Incongruent	783	1	Right	Down	g	g
104.82	0.2	SpatialCue	SpatialCue	n/a	n/a	n/a	Up	n/a	n/a
116.82	2	Incongruent	Incongruent	608	1	Right	Up	g	g
122.33	0.2	SpatialCue	SpatialCue	n/a	n/a	n/a	Down	n/a	n/a
122.81	2	Congruent	Congruent	666	1	Right	Down	g	g
125.83	0.2	NoCue	NoCue	n/a	n/a	n/a	n/a	n/a	n/a
129.31	2	Incongruent	Incongruent	1078	1	Left	Up	y	y
133.82	0.2	NoCue	NoCue	n/a	n/a	n/a	n/a	n/a	n/a
145.82	2	Congruent	Congruent	586	1	Right	Up	g	g
150.83	0.2	CenterCue	CenterCue	n/a	n/a	n/a	n/a	n/a	n/a
151.32	2	Incongruent	Incongruent	856	1	Left	Down	y	y
155.83	0.2	CenterCue	CenterCue	n/a	n/a	n/a	n/a	n/a	n/a
160.81	2	Congruent	Congruent	603	1	Right	Down	g	g
164.83	0.2	CenterCue	CenterCue	n/a	n/a	n/a	n/a	n/a	n/a
166.56	2	Congruent	Congruent	758	1	Right	Down	g	g
169.57	0.2	SpatialCue	SpatialCue	n/a	n/a	n/a	Up	n/a	n/a
170.06	2	Congruent	Congruent	653	1	Left	Up	y	y
173.82	0.2	NoCue	NoCue	n/a	n/a	n/a	n/a	n/a	n/a
177.3	2	Congruent	Congruent	936	1	Left	Down	y	y
185.32	0.2	NoCue	NoCue	n/a	n/a	n/a	n/a	n/a	n/a
186.3	2	Congruent	Congruent	759	1	Left	Up	y	y
192.81	0.2	SpatialCue	SpatialCue	n/a	n/a	n/a	Down	n/a	n/a
194.04	2	Incongruent	Incongruent	850	1	Left	Down	y	y
197.56	0.2	NoCue	NoCue	n/a	n/a	n/a	n/a	n/a	n/a
198.04	2	Congruent	Congruent	760	1	Right	Down	g	g
213.05	0.2	NoCue	NoCue	n/a	n/a	n/a	n/a	n/a	n/a
215.55	2	Incongruent	Incongruent	906	1	Left	Up	y	y
218.82	0.2	NoCue	NoCue	n/a	n/a	n/a	n/a	n/a	n/a
219.55	2	Incongruent	Incongruent	836	1	Right	Down	g	g
225.06	0.2	SpatialCue	SpatialCue	n/a	n/a	n/a	Up	n/a	n/a
231.79	2	Incongruent	Incongruent	750	1	Left	Up	y	y
241.81	0.2	NoCue	NoCue	n/a	n/a	n/a	n/a	n/a	n/a
245.3	2	Incongruent	Incongruent	786	1	Right	Down	g	g
255.31	0.2	CenterCue	CenterCue	n/a	n/a	n/a	n/a	n/a	n/a
256.55	2	Congruent	Congruent	756	1	Left	Down	y	y
264.56	0.2	NoCue	NoCue	n/a	n/a	n/a	n/a	n/a	n/a
267.04	2	Incongruent	Incongruent	983	1	Left	Down	y	y
270.81	0.2	CenterCue	CenterCue	n/a	n/a	n/a	n/a	n/a	n/a
271.79	2	Incongruent	Incongruent	700	1	Right	Up	g	g
274.81	0.2	CenterCue	CenterCue	n/a	n/a	n/a	n/a	n/a	n/a
275.29	2	Incongruent	Incongruent	752	1	Left	Up	y	y
279.3	0.2	SpatialCue	SpatialCue	n/a	n/a	n/a	Up	n/a	n/a
286.03	2	Congruent	Congruent	485	1	Right	Up	g	g
289.55	0.2	SpatialCue	SpatialCue	n/a	n/a	n/a	Down	n/a	n/a
290.28	2	Incongruent	Incongruent	696	1	Right	Down	g	g
295.3	0.2	CenterCue	CenterCue	n/a	n/a	n/a	n/a	n/a	n/a
307.29	2	Incongruent	Incongruent	866	1	Left	Down	y	y
313.8	0.2	NoCue	NoCue	n/a	n/a	n/a	n/a	n/a	n/a
315.54	2	Congruent	Congruent	541	1	Right	Up	g	g
330.54	0.2	CenterCue	CenterCue	n/a	n/a	n/a	n/a	n/a	n/a
335.54	2	Congruent	Congruent	583	1	Right	Up	g	g
338.81	0.2	NoCue	NoCue	n/a	n/a	n/a	n/a	n/a	n/a
339.29	2	Congruent	Congruent	673	1	Left	Down	y	y
344.8	0.2	SpatialCue	SpatialCue	n/a	n/a	n/a	Up	n/a	n/a
345.29	2	Congruent	Congruent	656	1	Left	Up	y	y
